t,ax,ay,az,gx,gy,gz
21854, 0.67, -0.36, 0.70, -0.21, 4.34, -5.88
21855, 0.65, -0.37, 0.68, 1.33, 5.74, -7.42
21856, 0.65, -0.37, 0.70, -1.68, 3.57, -5.60
21857, 0.66, -0.35, 0.69, -3.71, 9.10, -6.37
21858, 0.66, -0.36, 0.69, 0.63, 10.57, -5.60
21859, 0.67, -0.37, 0.69, 2.17, 10.85, -5.32
21860, 0.64, -0.35, 0.69, 2.73, 7.77, -2.66
21861, 0.61, -0.34, 0.70, 1.75, -1.26, 0.35
21862, 0.62, -0.33, 0.71, 1.26, -5.39, 1.19
21863, 0.64, -0.34, 0.72, 2.03, -6.16, 1.82
21864, 0.65, -0.34, 0.72, -0.07, -1.26, 0.14
21865, 0.65, -0.34, 0.70, -1.05, 1.54, -1.12
21866, 0.64, -0.35, 0.70, -3.43, 3.71, -1.61
21867, 0.65, -0.35, 0.71, -4.97, 4.90, -1.96
21868, 0.65, -0.34, 0.71, -6.65, 5.60, -2.45
21869, 0.64, -0.34, 0.72, -7.21, 5.88, -1.89
21870, 0.65, -0.34, 0.70, -5.95, 4.76, 1.12
21871, 0.64, -0.35, 0.70, -4.13, 2.38, 2.80
21872, 0.63, -0.36, 0.70, -1.47, 0.42, 2.59
21873, 0.63, -0.35, 0.71, 1.47, -0.84, 2.24
21874, 0.64, -0.35, 0.71, 2.66, -0.56, 2.52
21875, 0.64, -0.35, 0.71, 3.57, 0.42, 2.31
21876, 0.63, -0.35, 0.71, 2.31, -0.07, 1.68
21877, 0.63, -0.35, 0.72, 0.98, -0.28, 1.26
21878, 0.63, -0.36, 0.71, 0.91, -0.21, 1.05
21879, 0.64, -0.36, 0.71, 0.49, 0.63, 1.19
21880, 0.63, -0.35, 0.71, 1.19, -0.14, 0.98
21881, 0.63, -0.36, 0.70, 1.89, -1.05, 0.21
21882, 0.63, -0.37, 0.70, 2.38, -3.43, 1.61
21883, 0.63, -0.36, 0.71, 6.23, -5.81, 5.25
21884, 0.61, -0.35, 0.71, 3.36, -7.49, 8.33
21885, 0.61, -0.34, 0.72, 0.14, -9.87, 8.89
21886, 0.63, -0.35, 0.72, -1.96, -10.64, 7.91
21887, 0.65, -0.36, 0.72, -1.33, -7.98, 4.97
21888, 0.64, -0.36, 0.71, 0.84, -8.12, 3.99
21889, 0.64, -0.36, 0.72, 2.94, -8.26, 3.22
21890, 0.65, -0.33, 0.71, -2.80, -3.64, 1.89
21891, 0.64, -0.34, 0.69, -3.64, -2.59, -1.05
21892, 0.64, -0.38, 0.68, -3.57, -3.78, -2.94
21893, 0.65, -0.38, 0.68, -0.42, -3.29, -3.57
21894, 0.66, -0.38, 0.69, -0.49, -1.82, -3.99
21895, 0.66, -0.38, 0.69, 0.98, -0.84, -3.85
21896, 0.65, -0.38, 0.68, 0.28, -0.91, -3.57
21897, 0.65, -0.37, 0.68, -0.56, -0.98, -3.01
21898, 0.65, -0.37, 0.69, 0.00, -1.19, -1.96
21899, 0.65, -0.36, 0.69, 0.28, -0.35, -1.54
21900, 0.65, -0.36, 0.69, 0.35, -0.28, -1.54
21901, 0.65, -0.36, 0.70, -0.07, 0.14, -0.91
21902, 0.64, -0.35, 0.70, 0.07, 0.07, -0.49
21903, 0.65, -0.35, 0.70, -1.89, 1.40, -1.12
21904, 0.64, -0.35, 0.70, -2.38, 2.03, -0.56
21905, 0.64, -0.35, 0.70, -1.26, -0.49, -0.28
21906, 0.65, -0.36, 0.70, -1.05, -0.49, -0.98
21907, 0.65, -0.36, 0.70, -0.98, -0.84, -0.56
21908, 0.64, -0.36, 0.70, -0.77, -1.61, -0.35
21909, 0.65, -0.36, 0.70, -0.70, -0.84, -0.35
21910, 0.64, -0.36, 0.69, -0.35, -1.40, 0.28
21911, 0.64, -0.37, 0.70, 0.07, -1.26, 0.42
21912, 0.64, -0.36, 0.70, 0.63, -1.12, -0.14
21913, 0.64, -0.36, 0.70, -0.28, -1.96, -0.07
21914, 0.65, -0.36, 0.70, -0.56, -2.59, 0.00
21915, 0.65, -0.36, 0.70, -0.28, -2.52, 0.14
21916, 0.65, -0.35, 0.70, 0.84, -0.98, 0.35
21917, 0.65, -0.36, 0.70, 0.21, -0.98, 0.56
21918, 0.64, -0.36, 0.69, 0.07, -0.77, 0.56
21919, 0.65, -0.36, 0.70, 0.42, -0.35, 0.00
21920, 0.65, -0.35, 0.70, 0.28, -0.49, 0.00
21921, 0.65, -0.36, 0.70, 0.21, -0.35, -0.07
21922, 0.65, -0.36, 0.69, 0.28, -0.56, 0.07
21923, 0.65, -0.36, 0.69, 0.21, -0.42, 0.00
21924, 0.65, -0.36, 0.70, 0.77, -1.05, 0.28
21925, 0.65, -0.36, 0.70, 0.84, 0.00, 0.35
21926, 0.65, -0.37, 0.70, 0.77, 0.07, 0.28
21927, 0.64, -0.36, 0.70, 0.63, 0.49, 0.07
21928, 0.65, -0.36, 0.70, 1.05, 0.42, 0.07
21929, 0.65, -0.36, 0.70, 1.19, -0.07, -0.21
21930, 0.64, -0.36, 0.70, 0.84, 0.21, -0.49
21931, 0.64, -0.36, 0.70, 1.33, 0.21, -1.05
21932, 0.64, -0.36, 0.70, 0.84, 0.14, -0.98
21933, 0.65, -0.36, 0.70, 0.98, 0.70, -0.70
21934, 0.64, -0.36, 0.70, 0.70, 0.84, -0.49
21935, 0.64, -0.36, 0.70, 0.91, 0.07, -0.63
21936, 0.65, -0.35, 0.70, 0.70, 0.42, -0.42
21937, 0.64, -0.36, 0.70, 0.98, 0.14, 0.14
21938, 0.64, -0.36, 0.70, 0.77, -0.56, 0.56
21939, 0.63, -0.36, 0.70, 1.33, -1.61, 0.77
21940, 0.64, -0.36, 0.70, 1.40, -2.66, 0.91
21941, 0.64, -0.36, 0.71, 0.77, -2.38, 0.98
21942, 0.64, -0.36, 0.71, 1.40, -3.08, 0.98
21943, 0.64, -0.35, 0.70, 0.35, -3.01, 0.77
21944, 0.64, -0.36, 0.70, 0.63, -3.15, 1.12
21945, 0.64, -0.36, 0.71, 0.56, -2.87, 0.91
21946, 0.64, -0.36, 0.70, 0.35, -3.85, 0.63
21947, 0.64, -0.36, 0.70, 0.21, -3.50, 0.77
21948, 0.64, -0.36, 0.70, 0.63, -4.20, 0.91
21949, 0.65, -0.36, 0.70, 0.49, -3.78, 0.84
21950, 0.65, -0.35, 0.70, 0.14, -3.85, 0.91
21951, 0.65, -0.35, 0.70, 0.28, -3.85, 0.77
21952, 0.65, -0.36, 0.70, 0.07, -3.08, 0.56
21953, 0.65, -0.36, 0.70, 0.35, -2.66, 0.63
21954, 0.65, -0.36, 0.70, 0.42, -2.24, 0.49
21955, 0.65, -0.35, 0.70, 0.07, -2.45, 0.35
21956, 0.65, -0.35, 0.70, -0.21, -1.75, 0.70
21957, 0.65, -0.36, 0.69, 0.49, -1.82, 0.49
21958, 0.65, -0.36, 0.69, 0.00, -2.03, -0.07
21959, 0.65, -0.36, 0.70, 0.21, -2.10, 0.21
21960, 0.65, -0.36, 0.70, 0.21, -1.82, 0.35
21961, 0.65, -0.36, 0.70, 0.14, -2.31, 0.28
21962, 0.65, -0.36, 0.69, 0.07, -1.54, 0.00
21963, 0.65, -0.36, 0.69, 0.21, -1.61, 0.21
21964, 0.65, -0.36, 0.70, 0.28, -1.96, 0.21
21965, 0.65, -0.36, 0.69, -0.28, -1.82, -0.14
21966, 0.65, -0.36, 0.70, 0.28, -2.03, 0.00
21967, 0.65, -0.36, 0.70, -0.07, -1.68, 0.14
21968, 0.65, -0.36, 0.69, -0.07, -1.89, 0.14
21969, 0.65, -0.36, 0.69, 0.14, -1.61, 0.00
21970, 0.65, -0.35, 0.71, 0.70, -0.77, -0.28
21971, 0.66, -0.35, 0.69, 0.14, 0.70, 0.00
21972, 0.65, -0.36, 0.69, -0.77, 0.42, 0.21
21973, 0.65, -0.36, 0.69, 1.19, 0.42, -0.07
21974, 0.65, -0.36, 0.69, 0.98, 0.21, -0.14
21975, 0.65, -0.36, 0.70, 0.56, -0.35, 0.28
21976, 0.65, -0.36, 0.70, 0.91, -0.14, 0.42
21977, 0.65, -0.36, 0.69, 0.70, 0.14, 0.07
21978, 0.65, -0.36, 0.70, 0.28, 0.49, 0.07
21979, 0.65, -0.36, 0.70, 0.70, 0.28, 0.21
21980, 0.64, -0.36, 0.70, 0.42, 0.07, 0.00
21981, 0.65, -0.35, 0.70, 0.49, 0.14, 0.00
21982, 0.64, -0.36, 0.70, 0.56, -0.35, 0.21
21983, 0.65, -0.36, 0.70, 0.84, 0.00, 0.42
21984, 0.65, -0.36, 0.70, 0.49, 0.07, 0.28
21985, 0.65, -0.36, 0.70, 1.05, -0.21, 0.35
21986, 0.65, -0.36, 0.70, 0.70, -0.63, 0.28
21987, 0.65, -0.35, 0.70, 0.28, -0.63, 0.63
21988, 0.65, -0.36, 0.70, 0.42, -0.63, 0.49
21989, 0.64, -0.35, 0.70, 0.42, 0.21, 0.07
21990, 0.64, -0.35, 0.70, 0.84, -0.35, 0.42
21991, 0.65, -0.36, 0.70, 1.47, -0.42, 0.91
21992, 0.64, -0.36, 0.70, 1.54, -0.84, 0.98
21993, 0.64, -0.36, 0.70, 1.47, -1.54, 0.77
21994, 0.64, -0.36, 0.70, 1.26, -2.59, 0.77
21995, 0.65, -0.36, 0.70, 0.49, -3.22, 0.63
21996, 0.65, -0.36, 0.70, -0.28, -3.92, 0.70
21997, 0.64, -0.36, 0.70, -0.07, -4.20, 0.63
21998, 0.65, -0.36, 0.70, 0.14, -3.92, 0.63
21999, 0.65, -0.36, 0.70, -0.63, -3.36, 0.28
22000, 0.65, -0.36, 0.70, -0.21, -3.36, 0.14
22001, 0.65, -0.36, 0.69, -0.28, -3.50, 0.35
22002, 0.65, -0.36, 0.70, 0.14, -3.22, 0.35
22003, 0.65, -0.36, 0.70, -0.63, -3.22, 0.91
22004, 0.64, -0.36, 0.70, 1.12, -4.76, 1.40
22005, 0.65, -0.36, 0.69, 1.19, -5.11, -0.49
22006, 0.65, -0.35, 0.69, 1.89, -3.71, 0.07
22007, 0.65, -0.36, 0.69, 0.77, -4.06, 1.05
22008, 0.66, -0.35, 0.69, -0.21, -0.91, 0.49
22009, 0.66, -0.35, 0.69, -0.77, -0.91, 0.14
22010, 0.66, -0.35, 0.69, -0.42, 0.84, -0.28
22011, 0.65, -0.36, 0.69, -0.98, 0.63, -0.42
22012, 0.65, -0.36, 0.69, -0.28, 0.07, -0.56
22013, 0.65, -0.36, 0.69, 0.63, -0.98, -0.28
22014, 0.65, -0.36, 0.69, 1.12, -1.54, 0.35
22015, 0.65, -0.36, 0.69, 1.33, -1.61, 0.77
22016, 0.65, -0.36, 0.69, 0.98, -1.40, 0.77
22017, 0.65, -0.36, 0.69, 0.28, -1.61, 0.63
22018, 0.66, -0.35, 0.70, 1.19, 0.21, 0.63
22019, 0.66, -0.36, 0.69, -0.56, 0.49, 0.49
22020, 0.64, -0.36, 0.69, -0.28, 0.42, -0.07
22021, 0.65, -0.35, 0.69, -0.56, 0.14, -0.91
22022, 0.66, -0.36, 0.70, -0.28, 0.77, -0.91
22023, 0.65, -0.36, 0.69, 0.07, 0.07, -0.70
22024, 0.65, -0.35, 0.70, -0.07, 0.28, -0.70
22025, 0.65, -0.35, 0.69, -0.07, 0.07, -0.42
22026, 0.66, -0.35, 0.69, 0.21, 0.42, -0.42
22027, 0.65, -0.36, 0.69, 0.56, 0.98, -0.21
22028, 0.65, -0.36, 0.70, 0.28, 0.56, -0.07
22029, 0.65, -0.36, 0.70, 0.28, 0.84, -0.28
22030, 0.65, -0.35, 0.70, 0.42, 0.98, -0.28
22031, 0.64, -0.36, 0.70, 0.56, 0.70, -0.07
22032, 0.64, -0.35, 0.70, 0.35, 0.63, -0.07
22033, 0.65, -0.36, 0.70, 0.28, 0.35, -0.42
22034, 0.65, -0.35, 0.70, 0.42, 0.56, 0.21
22035, 0.64, -0.36, 0.70, -0.14, 0.56, 0.00
22036, 0.64, -0.36, 0.70, 0.42, 0.28, -0.28
22037, 0.64, -0.35, 0.70, 0.70, 0.14, -0.21
22038, 0.64, -0.36, 0.70, 0.84, -0.14, 0.28
22039, 0.64, -0.36, 0.70, 1.26, -0.63, 0.63
22040, 0.64, -0.35, 0.70, 1.05, -0.84, 0.56
22041, 0.64, -0.36, 0.70, 1.05, -1.19, 0.63
22042, 0.64, -0.36, 0.70, 1.19, -2.10, 0.49
22043, 0.64, -0.36, 0.70, 0.07, -2.59, 0.21
22044, 0.64, -0.35, 0.70, 0.49, -3.15, 0.42
22045, 0.64, -0.35, 0.70, 0.28, -3.22, 0.49
22046, 0.64, -0.36, 0.70, -0.14, -3.36, 0.49
22047, 0.65, -0.35, 0.70, 0.28, -2.94, 0.28
22048, 0.65, -0.36, 0.70, -0.28, -2.66, 0.07
22049, 0.65, -0.36, 0.70, -0.28, -2.80, 0.21
22050, 0.65, -0.35, 0.70, -0.63, -2.52, 0.35
22051, 0.65, -0.36, 0.70, -0.35, -3.01, 0.14
22052, 0.65, -0.35, 0.69, -0.28, -2.52, -0.14
22053, 0.65, -0.35, 0.70, 0.00, -2.52, 0.21
22054, 0.65, -0.35, 0.70, 0.07, -2.52, 0.35
22055, 0.65, -0.35, 0.70, -0.28, -1.89, 0.07
22056, 0.65, -0.35, 0.69, 0.07, -1.33, 0.07
22057, 0.65, -0.36, 0.70, 0.07, -1.54, 0.14
22058, 0.65, -0.36, 0.70, -0.07, -1.26, 0.07
22059, 0.65, -0.35, 0.69, 0.00, -1.33, 17.85
22060, 0.65, -0.36, 0.70, 0.42, -1.82, 0.07
22061, 0.65, -0.35, 0.70, 0.28, -1.33, 0.14
22062, 0.65, -0.36, 0.69, -0.42, -1.40, 0.21
22063, 0.65, -0.36, 0.70, -0.07, -1.68, 0.07
22064, 0.65, -0.36, 0.69, 0.14, -1.96, 0.14
22065, 0.65, -0.35, 0.70, 0.42, -1.61, 0.07
22066, 0.65, -0.36, 0.69, -0.14, -1.54, 0.35
22067, 0.65, -0.36, 0.69, 0.07, -1.96, 0.14
22068, 0.65, -0.36, 0.69, 0.21, -2.03, 0.07
22069, 0.65, -0.35, 0.69, 0.42, -2.31, 0.35
22070, 0.65, -0.36, 0.70, 0.42, -2.17, 0.70
22071, 0.65, -0.35, 0.70, 1.05, 0.07, 0.84
22072, 0.66, -0.35, 0.69, 0.63, 0.28, 0.91
22073, 0.65, -0.36, 0.69, 0.63, -0.56, 0.70
22074, 0.65, -0.36, 0.70, 0.84, -0.21, -0.07
22075, 0.65, -0.35, 0.69, 0.70, -0.63, -0.14
22076, 0.65, -0.35, 0.69, 0.49, -0.42, 0.21
22077, 0.65, -0.35, 0.69, 0.56, -0.63, 0.42
22078, 0.65, -0.36, 0.69, 0.42, 0.07, 0.14
22079, 0.65, -0.36, 0.70, 0.91, 0.28, 0.35
22080, 0.65, -0.35, 0.70, 0.42, 0.42, 0.07
22081, 0.65, -0.35, 0.70, 0.07, 0.28, 0.14
22082, 0.65, -0.36, 0.70, 0.49, 0.42, 0.35
22083, 0.65, -0.36, 0.70, 1.05, 0.63, -0.14
22084, 0.65, -0.35, 0.70, 0.56, 0.07, -0.21
22085, 0.65, -0.35, 0.70, 0.77, -0.07, 0.28
22086, 0.65, -0.36, 0.70, 0.56, -0.07, 0.21
22087, 0.65, -0.35, 0.70, 0.35, 0.07, -0.14
22088, 0.65, -0.35, 0.70, 0.42, 0.35, 0.28
22089, 0.64, -0.35, 0.70, 0.49, 0.07, 0.21
22090, 0.64, -0.35, 0.70, 0.42, -0.21, 0.00
22091, 0.64, -0.35, 0.70, 0.84, -0.56, 0.21
22092, 0.64, -0.35, 0.70, 0.91, -0.21, 0.42
22093, 0.64, -0.35, 0.70, 1.26, -0.63, 0.42
22094, 0.64, -0.35, 0.70, 1.26, -0.91, 0.84
22095, 0.64, -0.36, 0.70, 1.12, -1.05, 0.70
22096, 0.64, -0.35, 0.70, 1.26, -1.96, 0.49
22097, 0.64, -0.35, 0.70, 0.14, -1.61, 0.35
22098, 0.65, -0.35, 0.71, -0.42, -1.19, -0.28
22099, 0.64, -0.35, 0.70, -0.21, -1.19, -1.75
22100, 0.64, -0.36, 0.70, -0.07, -1.75, -2.52
22101, 0.65, -0.36, 0.70, -0.56, -0.77, -2.80
22102, 0.65, -0.36, 0.70, -1.05, -0.84, -1.47
22103, 0.64, -0.35, 0.70, -0.77, -1.26, -1.61
22104, 0.64, -0.35, 0.70, 0.07, -2.03, -1.54
22105, 0.65, -0.35, 0.70, 1.05, -2.24, -0.77
22106, 0.65, -0.35, 0.70, 0.91, -2.52, 0.14
22107, 0.64, -0.34, 0.70, 0.77, -3.22, 0.77
22108, 0.64, -0.34, 0.71, 0.91, -3.50, 1.19
22109, 0.64, -0.35, 0.70, 1.12, -3.78, 0.84
22110, 0.65, -0.35, 0.70, 1.33, -3.50, 1.47
22111, 0.65, -0.34, 0.70, 1.40, -3.71, 1.61
22112, 0.65, -0.34, 0.70, 1.40, -3.64, 1.89
22113, 0.66, -0.36, 0.70, 0.49, -3.08, 1.61
22114, 0.65, -0.35, 0.70, 1.19, -3.71, 0.84
22115, 0.65, -0.35, 0.69, 1.05, -3.71, 1.19
22116, 0.65, -0.35, 0.69, 0.84, -3.57, 1.26
22117, 0.66, -0.35, 0.70, 1.33, -2.73, 1.47
22118, 0.66, -0.36, 0.69, 0.91, -1.96, 1.47
22119, 0.65, -0.35, 0.69, 0.84, -2.45, 1.40
22120, 0.66, -0.35, 0.70, 0.56, -1.82, 0.77
22121, 0.66, -0.35, 0.69, 0.07, -1.89, -0.35
22122, 0.66, -0.35, 0.69, -0.07, -1.75, -0.77
22123, 0.66, -0.35, 0.69, -0.28, -1.19, -0.63
22124, 0.65, -0.35, 0.69, -0.35, -0.84, 0.00
22125, 0.65, -0.35, 0.70, -0.07, -1.05, 0.28
22126, 0.66, -0.35, 0.70, -0.21, -0.63, 0.07
22127, 0.66, -0.34, 0.70, 1.75, 1.33, 0.84
22128, 0.66, -0.35, 0.69, 0.21, 0.28, 1.05
22129, 0.65, -0.35, 0.69, -0.07, 0.42, 0.56
22130, 0.65, -0.35, 0.70, -0.28, 0.42, -0.42
22131, 0.65, -0.35, 0.70, -0.21, 0.07, -0.49
22132, 0.65, -0.35, 0.70, -0.14, 0.49, -0.63
22133, 0.65, -0.35, 0.69, 0.00, 0.42, -0.77
22134, 0.65, -0.35, 0.69, -0.28, 0.49, -0.35
22135, 0.65, -0.35, 0.70, 0.14, 0.77, -0.28
22136, 0.65, -0.36, 0.70, 0.35, 0.35, -0.42
22137, 0.65, -0.35, 0.70, 0.14, 0.84, -0.56
22138, 0.65, -0.35, 0.70, 0.14, 0.49, -0.42
22139, 0.65, -0.35, 0.70, 0.70, 0.35, -0.35
22140, 0.65, -0.35, 0.70, 0.98, 0.00, -0.14
22141, 0.64, -0.35, 0.70, 0.98, -0.21, 0.49
22142, 0.65, -0.35, 0.70, 0.91, -1.19, 0.84
22143, 0.65, -0.35, 0.71, 1.05, -0.63, 0.91
22144, 0.64, -0.35, 0.70, 0.91, -0.91, 0.70
22145, 0.65, -0.35, 0.70, 1.05, -0.63, 0.35
22146, 0.65, -0.35, 0.70, 0.77, -0.77, 0.63
22147, 0.65, -0.35, 0.70, 0.70, -1.12, 0.35
22148, 0.65, -0.35, 0.70, 0.98, -0.98, 0.07
22149, 0.65, -0.35, 0.70, 0.84, -0.77, 0.07
22150, 0.65, -0.35, 0.70, 1.82, -0.77, 0.35
22151, 0.65, -0.35, 0.70, 1.47, -0.91, 0.70
22152, 0.64, -0.35, 0.70, 1.26, -1.33, 0.84
22153, 0.64, -0.35, 0.70, 2.38, -2.31, 0.98
22154, 0.65, -0.35, 0.70, 1.75, -2.45, 1.05
22155, 0.65, -0.35, 0.71, 1.12, -2.94, 0.91
22156, 0.64, -0.35, 0.70, 0.56, -2.38, 0.63
22157, 0.65, -0.35, 0.70, 0.21, -2.38, 0.56
22158, 0.65, -0.35, 0.70, -0.07, -2.38, 0.21
22159, 0.65, -0.35, 0.70, -0.42, -2.10, 0.07
22160, 0.65, -0.35, 0.70, -0.77, -2.10, -0.21
22161, 0.65, -0.35, 0.70, -0.42, -2.59, 0.07
22162, 0.65, -0.35, 0.70, 0.00, -2.80, 0.21
22163, 0.65, -0.35, 0.70, 0.00, -2.87, 0.21
22164, 0.65, -0.35, 0.70, 0.21, -2.59, 0.35
22165, 0.65, -0.35, 0.70, 0.35, -2.38, 0.28
22166, 0.65, -0.35, 0.70, 0.14, -2.73, 0.49
22167, 0.65, -0.35, 0.70, -0.14, -2.31, 0.42
22168, 0.65, -0.35, 0.70, -0.07, -2.17, 0.14
22169, 0.65, -0.35, 0.70, 0.07, -2.24, 0.42
22170, 0.65, -0.35, 0.69, 0.21, -3.15, 1.61
22171, 0.65, -0.35, 0.70, 1.12, -3.99, 2.80
22172, 0.65, -0.34, 0.70, 0.42, -4.41, 1.96
22173, 0.65, -0.35, 0.70, 0.35, -3.78, 0.84
22174, 0.65, -0.35, 0.70, 0.28, -3.64, 1.68
22175, 0.66, -0.35, 0.70, -1.12, -0.98, 0.00
22176, 0.65, -0.35, 0.69, -0.49, -1.68, 0.07
22177, 0.66, -0.36, 0.69, -0.35, -2.38, 0.21
22178, 0.66, -0.35, 0.69, -0.84, -0.84, 0.00
22179, 0.65, -0.35, 0.69, 0.00, -1.89, 0.63
22180, 0.66, -0.36, 0.69, 0.42, -1.96, 0.63
22181, 0.66, -0.35, 0.69, 0.00, -1.05, 0.35
22182, 0.66, -0.36, 0.69, -0.35, -1.54, 0.21
22183, 0.66, -0.35, 0.69, -0.35, 0.56, 0.28
22184, 0.66, -0.35, 0.69, -0.84, 0.28, 0.21
22185, 0.66, -0.35, 0.69, -0.91, 1.19, 0.14
22186, 0.65, -0.35, 0.69, -0.35, 1.40, -0.70
22187, 0.65, -0.35, 0.69, -0.42, 1.05, -0.98
22188, 0.65, -0.35, 0.69, -0.14, 0.70, -0.77
22189, 0.65, -0.35, 0.70, 0.07, 0.56, 0.00
22190, 0.66, -0.36, 0.70, 0.00, 0.77, 0.07
22191, 0.65, -0.35, 0.70, -0.28, 1.05, -0.28
22192, 0.65, -0.35, 0.70, -0.14, 0.77, -0.28
22193, 0.65, -0.36, 0.70, 0.35, 0.42, 0.21
22194, 0.65, -0.35, 0.70, 0.56, 0.35, 0.14
22195, 0.65, -0.35, 0.70, 0.56, -0.21, 0.00
22196, 0.65, -0.35, 0.70, 0.21, -0.07, 0.42
22197, 0.65, -0.35, 0.70, 0.91, 0.28, 0.49
22198, 0.65, -0.35, 0.70, 0.35, -0.28, 0.07
22199, 0.65, -0.35, 0.70, 0.49, -0.49, 0.14
22200, 0.65, -0.35, 0.70, 0.56, -0.35, 0.56
22201, 0.64, -0.35, 0.70, 0.56, -0.49, 0.35
22202, 0.65, -0.35, 0.70, 0.49, -0.42, 0.35
22203, 0.65, -0.35, 0.70, 0.21, -0.21, 0.35
22204, 0.64, -0.35, 0.70, 0.56, -1.05, 0.35
22205, 0.65, -0.35, 0.70, 0.63, -0.49, 0.56
22206, 0.64, -0.35, 0.70, 1.12, -0.56, 0.84
22207, 0.64, -0.35, 0.70, 1.33, -1.12, 0.84
22208, 0.64, -0.36, 0.70, 1.75, -1.61, 0.84
22209, 0.64, -0.36, 0.70, 1.96, -2.17, 0.91
22210, 0.64, -0.35, 0.70, 1.26, -2.59, 0.70
22211, 0.64, -0.35, 0.70, 0.77, -2.31, 0.70
22212, 0.65, -0.35, 0.70, 0.28, -2.24, 0.77
22213, 0.65, -0.35, 0.70, -0.14, -2.45, 0.28
22214, 0.65, -0.35, 0.70, -0.35, -2.59, 0.21
22215, 0.65, -0.35, 0.70, -0.35, -2.73, 0.14
22216, 0.65, -0.35, 0.70, -0.42, -2.52, 0.07
22217, 0.65, -0.36, 0.69, -0.21, -2.24, 0.14
22218, 0.65, -0.35, 0.70, -0.14, -2.52, 0.42
22219, 0.65, -0.35, 0.69, -0.07, -2.94, 0.14
22220, 0.65, -0.35, 0.70, 0.07, -2.38, 0.35
22221, 0.65, -0.35, 0.70, -0.35, -2.31, 0.35
22222, 0.65, -0.35, 0.69, -0.07, -2.24, 0.07
22223, 0.65, -0.35, 0.69, -0.14, -2.10, 0.14
22224, 0.65, -0.35, 0.70, 0.00, -2.17, 0.42
22225, 0.65, -0.35, 0.70, 0.00, -1.75, -0.14
22226, 0.65, -0.35, 0.70, -0.35, -1.19, -0.21
22227, 0.65, -0.35, 0.69, -0.07, -1.89, 0.28
22228, 0.65, -0.35, 0.70, -0.35, -1.54, 0.00
22229, 0.65, -0.36, 0.69, -0.35, -1.61, -0.42
22230, 0.65, -0.35, 0.69, 0.00, -1.61, -0.07
22231, 0.65, -0.35, 0.69, -0.07, -1.54, 0.14
22232, 0.65, -0.35, 0.70, 0.21, -1.68, 0.14
22233, 0.65, -0.35, 0.69, 0.07, -1.33, 0.00
22234, 0.66, -0.36, 0.69, 0.00, -1.33, 0.21
22235, 0.65, -0.35, 0.69, 0.00, -1.82, 0.21
22236, 0.65, -0.35, 0.70, 0.00, -1.54, 0.21
22237, 0.65, -0.36, 0.69, 0.07, -1.68, 0.00
22238, 0.65, -0.35, 0.69, 0.28, -1.82, -0.07
22239, 0.66, -0.35, 0.69, 0.28, -1.68, 0.14
22240, 0.66, -0.35, 0.69, 0.14, -1.75, 0.35
22241, 0.66, -0.35, 0.69, 0.28, -1.54, 0.21
22242, 0.65, -0.35, 0.69, -0.14, -1.26, 0.35
22243, 0.65, -0.35, 0.69, 0.28, -1.75, 0.35
22244, 0.65, -0.35, 0.69, 0.28, -1.54, 0.28
22245, 0.65, -0.35, 0.70, 0.28, -1.19, 0.14
22246, 0.66, -0.35, 0.70, 0.70, -0.07, 0.42
22247, 0.66, -0.35, 0.69, 0.07, 0.07, 0.21
22248, 0.65, -0.35, 0.69, 0.14, 0.28, 0.21
22249, 0.65, -0.36, 0.70, 0.63, -0.28, -0.14
22250, 0.65, -0.35, 0.70, 0.42, -0.07, 0.00
22251, 0.65, -0.35, 0.70, 0.56, -0.28, -0.07
22252, 0.65, -0.35, 0.69, 0.42, 0.14, 0.49
22253, 0.65, -0.35, 0.69, 0.49, -0.07, 0.21
22254, 0.65, -0.35, 0.69, 0.56, 0.14, 0.00
22255, 0.65, -0.36, 0.69, 1.05, -0.14, 0.21
22256, 0.65, -0.36, 0.70, 0.63, 0.28, 0.42
22257, 0.65, -0.35, 0.70, 0.28, -0.07, 0.00
22258, 0.65, -0.35, 0.70, 0.49, 0.42, 0.14
22259, 0.65, -0.35, 0.70, 0.42, -0.07, 0.07
22260, 0.65, -0.35, 0.70, 0.49, -0.07, -0.07
22261, 0.65, -0.35, 0.70, 0.35, -0.07, -0.07
22262, 0.65, -0.35, 0.70, 0.70, -0.56, 0.14
22263, 0.65, -0.35, 0.70, 0.35, -0.56, 0.14
22264, 0.65, -0.35, 0.70, 0.49, -0.42, 0.14
22265, 0.65, -0.35, 0.70, 0.63, -0.42, 0.28
22266, 0.65, -0.35, 0.70, 0.70, -0.70, 0.28
22267, 0.65, -0.35, 0.70, 0.77, -0.42, 0.28
22268, 0.65, -0.35, 0.70, 0.28, -0.91, 0.49
22269, 0.65, -0.35, 0.70, 0.56, -0.14, 0.35
22270, 0.64, -0.35, 0.70, 1.12, -0.63, 0.49
22271, 0.65, -0.35, 0.70, 1.33, -1.12, 0.84
22272, 0.64, -0.35, 0.70, 1.47, -1.12, 0.84
22273, 0.64, -0.35, 0.70, 1.40, -1.61, 0.63
22274, 0.65, -0.35, 0.70, 0.98, -1.68, 0.63
22275, 0.65, -0.35, 0.70, 0.98, -2.10, 0.56
22276, 0.65, -0.35, 0.70, 0.35, -2.03, 0.56
22277, 0.65, -0.35, 0.70, 0.21, -2.24, 0.49
22278, 0.65, -0.35, 0.70, 0.07, -2.31, 0.49
22279, 0.65, -0.36, 0.70, 0.07, -2.45, 0.42
22280, 0.65, -0.35, 0.70, -0.07, -2.17, 0.14
22281, 0.65, -0.35, 0.70, -0.14, -2.10, -0.07
22282, 0.65, -0.35, 0.70, -0.14, -2.66, 0.00
22283, 0.65, -0.35, 0.70, -0.21, -2.10, 0.28
22284, 0.65, -0.35, 0.70, -0.14, -2.38, 0.49
22285, 0.65, -0.35, 0.69, 0.00, -2.03, 0.00
22286, 0.65, -0.35, 0.69, 0.00, -2.59, 0.14
22287, 0.65, -0.35, 0.70, -0.28, -2.10, 0.42
22288, 0.65, -0.35, 0.70, 0.35, -2.10, 0.56
22289, 0.65, -0.35, 0.70, -0.07, -1.82, 0.14
22290, 0.65, -0.35, 0.70, -0.14, -1.47, 0.14
22291, 0.65, -0.35, 0.70, -0.07, -1.68, 0.00
22292, 0.65, -0.35, 0.70, -0.21, -1.61, -0.14
22293, 0.66, -0.35, 0.70, -0.14, -1.47, 0.00
22294, 0.65, -0.35, 0.69, 0.21, -1.96, 0.35
22295, 0.65, -0.35, 0.70, -0.14, -1.61, 0.00
22296, 0.65, -0.35, 0.70, -0.21, -1.47, -0.07
22297, 0.65, -0.35, 0.69, 0.21, -1.61, 0.07
22298, 0.65, -0.35, 0.70, -0.21, -1.96, -0.21
22299, 0.66, -0.35, 0.69, -0.21, -1.40, 0.21
22300, 0.65, -0.36, 0.69, 0.28, -1.68, 0.14
22301, 0.65, -0.35, 0.69, -0.21, -1.26, -0.21
22302, 0.65, -0.35, 0.69, 0.07, -1.40, 0.28
22303, 0.65, -0.35, 0.69, 0.14, -1.61, 0.21
22304, 0.65, -0.35, 0.69, 0.42, -1.82, 0.35
22305, 0.66, -0.35, 0.69, 0.42, -1.47, 0.14
22306, 0.65, -0.35, 0.69, 0.35, -1.40, 0.49
22307, 0.65, -0.35, 0.69, 0.14, -1.40, 0.28
22308, 0.66, -0.35, 0.69, -0.07, -1.19, -0.14
22309, 0.65, -0.35, 0.69, 0.21, -1.47, 0.07
22310, 0.65, -0.35, 0.70, 0.56, -0.70, 0.35
22311, 0.66, -0.35, 0.70, 0.49, 0.07, 0.35
22312, 0.65, -0.35, 0.69, 0.21, 0.07, 0.56
22313, 0.65, -0.35, 0.69, 0.42, -0.14, 0.21
22314, 0.65, -0.35, 0.69, 0.63, -0.42, -0.07
22315, 0.66, -0.35, 0.70, 0.56, 0.07, 0.14
22316, 0.65, -0.36, 0.69, 0.56, -0.28, 0.14
22317, 0.65, -0.35, 0.69, 0.42, -0.70, -0.14
22318, 0.65, -0.35, 0.70, 0.42, -0.77, 0.07
22319, 0.66, -0.35, 0.70, 0.91, 0.07, 0.35
22320, 0.65, -0.35, 0.69, 0.42, -0.14, 0.00
22321, 0.65, -0.35, 0.70, 0.35, 0.21, 0.07
22322, 0.65, -0.35, 0.70, 0.28, 0.14, 0.28
22323, 0.65, -0.35, 0.70, 0.63, 0.14, 0.21
22324, 0.65, -0.35, 0.70, 0.56, 0.07, 0.00
22325, 0.65, -0.35, 0.69, 0.35, 0.14, 0.21
22326, 0.65, -0.35, 0.70, 0.56, -0.56, 0.42
22327, 0.65, -0.35, 0.70, 0.35, 0.00, 0.07
22328, 0.65, -0.35, 0.70, 0.42, 0.00, 0.07
22329, 0.65, -0.35, 0.70, 0.56, -0.14, 0.42
22330, 0.65, -0.35, 0.70, 0.63, -0.42, 0.14
22331, 0.65, -0.35, 0.70, 0.42, -0.07, 0.28
22332, 0.65, -0.35, 0.70, 1.26, -0.28, 0.49
22333, 0.64, -0.35, 0.70, 0.77, -0.63, 0.28
22334, 0.65, -0.35, 0.70, 0.63, -0.70, 0.49
22335, 0.65, -0.35, 0.70, 0.98, -0.77, 0.49
22336, 0.65, -0.35, 0.70, 1.05, -0.70, 0.56
22337, 0.65, -0.36, 0.70, 0.98, -0.84, 0.56
22338, 0.64, -0.36, 0.70, 1.19, -1.33, 0.63
22339, 0.64, -0.36, 0.70, 0.98, -1.96, 0.35
22340, 0.65, -0.35, 0.70, 0.56, -2.03, 0.21
22341, 0.65, -0.35, 0.70, 0.70, -2.59, 0.63
22342, 0.65, -0.35, 0.70, 0.49, -2.52, 0.63
22343, 0.65, -0.35, 0.70, 0.14, -2.52, 0.49
22344, 0.65, -0.35, 0.70, 0.00, -2.59, 0.28
22345, 0.65, -0.35, 0.70, 0.49, -2.38, 0.21
22346, 0.65, -0.35, 0.70, 0.00, -2.45, 0.21
22347, 0.65, -0.35, 0.70, -0.42, -2.31, 0.21
22348, 0.65, -0.35, 0.70, -0.14, -2.52, -0.07
22349, 0.65, -0.35, 0.70, -0.14, -2.66, 0.07
22350, 0.65, -0.35, 0.69, 0.28, -2.52, 0.49
22351, 0.65, -0.35, 0.70, 0.07, -2.24, 0.42
22352, 0.65, -0.35, 0.70, 0.14, -1.82, 0.14
22353, 0.65, -0.35, 0.70, -0.21, -1.68, 0.21
22354, 0.65, -0.35, 0.70, 0.14, -1.54, 0.28
22355, 0.65, -0.35, 0.70, -0.14, -1.54, -0.14
22356, 0.65, -0.35, 0.70, -0.28, -1.54, -0.14
22357, 0.65, -0.35, 0.70, 0.00, -1.61, 0.42
22358, 0.65, -0.35, 0.69, -0.07, -1.61, 0.21
22359, 0.65, -0.35, 0.70, -0.14, -1.26, -0.07
22360, 0.65, -0.35, 0.69, 0.21, -1.05, -17.85
22361, 0.65, -0.35, 0.69, -0.35, -1.40, -0.07
22362, 0.65, -0.35, 0.69, -0.21, -1.61, 0.28
22363, 0.65, -0.36, 0.69, -0.14, -1.47, 0.00
22364, 0.65, -0.35, 0.69, -0.21, -1.33, -0.28
22365, 0.65, -0.35, 0.69, -0.07, -1.75, 0.07
22366, 0.65, -0.35, 0.69, 0.35, -1.40, 0.49
22367, 0.65, -0.35, 0.69, 0.35, -1.19, 0.49
22368, 0.65, -0.35, 0.69, 0.21, -1.75, 0.14
22369, 0.65, -0.35, 0.69, 0.00, -1.47, 0.28
22370, 0.65, -0.35, 0.69, 0.28, -1.61, 0.35
22371, 0.66, -0.35, 0.69, 0.07, -1.68, 0.07
22372, 0.66, -0.35, 0.69, 0.14, -1.61, 0.21
22373, 0.65, -0.35, 0.69, 0.49, -1.82, 0.28
22374, 0.65, -0.36, 0.69, 0.28, -1.82, 0.42
22375, 0.65, -0.35, 0.69, 0.56, -2.03, 0.35
22376, 0.65, -0.35, 0.70, 0.14, -1.19, 0.21
22377, 0.66, -0.35, 0.70, 1.26, 0.63, 0.21
22378, 0.66, -0.35, 0.69, -0.35, 0.49, 0.49
22379, 0.65, -0.36, 0.69, 0.28, 0.49, 0.14
22380, 0.65, -0.35, 0.69, 0.70, 0.35, -0.63
22381, 0.65, -0.35, 0.69, 0.07, 0.00, -0.14
22382, 0.65, -0.35, 0.70, 0.49, -0.07, 0.42
22383, 0.65, -0.35, 0.69, 0.21, -0.14, 0.14
22384, 0.65, -0.35, 0.69, 0.56, 0.00, -0.07
22385, 0.65, -0.36, 0.70, 0.42, 0.00, 0.07
22386, 0.66, -0.35, 0.70, 0.63, 0.07, 0.14
22387, 0.65, -0.35, 0.70, 0.28, 0.00, -0.21
22388, 0.65, -0.35, 0.69, 0.28, 0.21, 0.14
22389, 0.65, -0.35, 0.70, 0.56, -0.07, 0.21
22390, 0.65, -0.35, 0.70, 0.84, -0.77, -0.14
22391, 0.65, -0.35, 0.70, 0.84, -0.28, 0.35
22392, 0.65, -0.35, 0.69, 0.21, -0.56, 0.07
22393, 0.65, -0.35, 0.70, 0.77, -0.49, 0.35
22394, 0.65, -0.35, 0.70, 0.49, 0.07, 0.49
22395, 0.65, -0.35, 0.70, 0.63, -0.28, 0.00
22396, 0.65, -0.35, 0.70, 0.49, -0.70, 0.21
22397, 0.65, -0.35, 0.70, 0.77, -0.70, 0.56
22398, 0.65, -0.35, 0.70, 0.98, -0.84, 0.42
22399, 0.65, -0.35, 0.70, 0.56, -0.98, 0.35
22400, 0.65, -0.35, 0.70, 0.91, -0.63, 0.49
22401, 0.65, -0.35, 0.70, 0.77, -0.77, 0.56
22402, 0.65, -0.35, 0.70, 1.05, -0.42, 0.63
22403, 0.64, -0.35, 0.70, 1.26, -0.98, 0.77
22404, 0.64, -0.35, 0.70, 1.47, -1.12, 0.70
22405, 0.65, -0.36, 0.70, 1.47, -1.33, 0.49
22406, 0.65, -0.35, 0.70, 0.84, -1.61, 0.49
22407, 0.64, -0.35, 0.70, 0.35, -2.03, 0.63
22408, 0.65, -0.35, 0.70, 0.49, -2.17, 0.35
22409, 0.65, -0.35, 0.70, 0.00, -1.47, 0.35
22410, 0.65, -0.36, 0.70, 0.07, -1.82, 0.21
22411, 0.65, -0.35, 0.70, -0.07, -1.89, 0.21
22412, 0.65, -0.35, 0.70, -0.07, -2.38, 0.28
22413, 0.65, -0.35, 0.70, -0.07, -2.52, 0.28
22414, 0.65, -0.35, 0.70, 0.00, -2.31, 0.14
22415, 0.65, -0.35, 0.70, 0.00, -2.10, 0.14
22416, 0.65, -0.35, 0.70, -0.07, -2.10, 0.28
22417, 0.65, -0.35, 0.70, -0.07, -2.03, 0.28
22418, 0.65, -0.35, 0.70, -0.14, -2.03, 0.00
22419, 0.65, -0.35, 0.70, 0.00, -1.89, 0.14
22420, 0.65, -0.35, 0.70, 0.14, -2.03, 0.28
22421, 0.65, -0.35, 0.70, -0.07, -1.82, 0.14
22422, 0.65, -0.35, 0.70, 0.63, -1.54, 0.21
22423, 0.65, -0.35, 0.70, 0.14, -1.68, 0.07
22424, 0.65, -0.35, 0.70, 0.00, -1.75, 0.14
22425, 0.65, -0.35, 0.70, 0.00, -1.54, 0.56
22426, 0.65, -0.36, 0.70, -0.14, -1.89, 0.14
22427, 0.65, -0.35, 0.69, -0.07, -1.89, -0.14
22428, 0.65, -0.35, 0.70, -0.14, -2.10, 0.35
22429, 0.65, -0.35, 0.70, 0.28, -1.82, 0.21
22430, 0.65, -0.35, 0.69, -0.21, -1.54, 0.00
22431, 0.65, -0.35, 0.69, -0.21, -1.75, 0.07
22432, 0.65, -0.35, 0.70, -0.35, -1.61, 0.14
22433, 0.66, -0.35, 0.70, -0.21, -1.47, -0.07
22434, 0.65, -0.35, 0.70, 0.00, -1.61, -0.07
22435, 0.65, -0.35, 0.69, 0.21, -1.82, 0.00
22436, 0.65, -0.35, 0.69, -0.14, -1.68, 0.07
22437, 0.65, -0.35, 0.69, -0.07, -1.61, 0.21
22438, 0.65, -0.35, 0.70, 0.28, -1.54, 0.28
22439, 0.65, -0.35, 0.69, 0.35, -1.68, 0.07
22440, 0.65, -0.35, 0.69, 0.35, -1.40, 0.14
22441, 0.65, -0.35, 0.69, 0.00, -1.40, 0.42
22442, 0.65, -0.35, 0.69, 0.49, -1.82, 0.21
22443, 0.66, -0.35, 0.69, 0.35, -1.96, 0.28
22444, 0.66, -0.35, 0.70, 0.35, -0.98, 0.56
22445, 0.66, -0.35, 0.70, 0.91, -0.28, 0.84
22446, 0.65, -0.35, 0.69, 0.00, -0.07, 0.28
22447, 0.65, -0.35, 0.69, 0.14, 0.35, 0.07
22448, 0.65, -0.35, 0.70, 0.35, -0.21, -0.21
22449, 0.65, -0.35, 0.70, 0.28, -0.07, -0.28
22450, 0.65, -0.35, 0.69, 0.91, 0.07, 0.00
22451, 0.65, -0.35, 0.69, 0.42, -0.70, 0.21
22452, 0.65, -0.35, 0.69, 0.49, -0.84, 0.00
22453, 0.65, -0.36, 0.70, 0.77, 0.14, 0.07
22454, 0.65, -0.35, 0.70, 0.42, 0.70, 0.14
22455, 0.65, -0.35, 0.69, 0.14, -0.07, 0.00
22456, 0.65, -0.35, 0.70, 0.63, 0.28, 0.21
22457, 0.65, -0.35, 0.70, 0.42, -0.21, 0.00
22458, 0.64, -0.35, 0.70, 0.56, -0.28, 0.07
22459, 0.65, -0.35, 0.70, 0.56, -0.28, 0.21
22460, 0.65, -0.35, 0.70, 0.49, -0.49, 0.35
22461, 0.65, -0.35, 0.70, 0.42, -0.42, 0.14
22462, 0.65, -0.35, 0.70, 0.42, -0.56, 0.14
22463, 0.65, -0.35, 0.70, 0.35, -0.56, 0.35
22464, 0.65, -0.35, 0.70, 0.56, -0.56, 0.14
22465, 0.65, -0.35, 0.70, 0.49, -0.77, 0.28
22466, 0.65, -0.35, 0.70, 0.77, -0.77, 0.56
22467, 0.65, -0.35, 0.70, 1.12, -0.56, 0.56
22468, 0.64, -0.35, 0.70, 1.12, -0.77, 0.42
22469, 0.65, -0.35, 0.70, 1.47, -0.70, 0.77
22470, 0.64, -0.35, 0.70, 1.40, -0.49, 0.84
22471, 0.64, -0.35, 0.70, 1.40, -1.33, 0.70
22472, 0.64, -0.35, 0.70, 1.05, -1.26, 0.84
22473, 0.65, -0.36, 0.70, 0.84, -1.89, 0.42
22474, 0.64, -0.35, 0.70, 0.63, -1.96, 0.28
22475, 0.64, -0.35, 0.70, 0.35, -2.24, 0.56
22476, 0.65, -0.35, 0.70, 0.21, -2.17, 0.42
22477, 0.64, -0.35, 0.70, 0.00, -2.17, 0.21
22478, 0.65, -0.35, 0.70, -0.42, -1.96, 0.07
22479, 0.65, -0.35, 0.70, -0.35, -2.03, 0.28
22480, 0.65, -0.35, 0.70, 0.28, -2.17, 0.14
22481, 0.65, -0.35, 0.70, -0.14, -2.52, -0.07
22482, 0.65, -0.35, 0.70, -0.49, -2.45, -0.07
22483, 0.65, -0.35, 0.70, -0.14, -2.03, 0.14
22484, 0.65, -0.35, 0.70, -0.35, -1.68, 0.14
22485, 0.65, -0.35, 0.69, 0.00, -1.68, 0.00
22486, 0.65, -0.35, 0.70, 0.00, -1.89, -0.07
22487, 0.65, -0.35, 0.70, -17.92, -1.75, 0.14
22488, 0.65, -0.35, 0.70, -0.21, -1.40, 0.42
22489, 0.65, -0.35, 0.70, 0.14, -1.61, 0.28
22490, 0.65, -0.35, 0.70, 0.07, -1.68, -0.07
22491, 0.65, -0.35, 0.70, -0.07, -1.75, 0.07
22492, 0.65, -0.35, 0.70, 0.14, -1.61, 0.21
22493, 0.65, -0.35, 0.70, -0.14, -1.75, 0.00
22494, 0.65, -0.35, 0.69, -0.35, -1.61, 0.14
22495, 0.65, -0.35, 0.70, 0.21, -1.68, 0.14
22496, 0.65, -0.35, 0.69, -0.07, -1.75, 0.00
22497, 0.65, -0.35, 0.69, -0.28, -2.10, -0.07
22498, 0.65, -0.35, 0.70, 0.00, -1.89, 0.14
22499, 0.65, -0.35, 0.70, -0.14, -1.82, 0.14
22500, 0.65, -0.35, 0.69, 0.14, -1.54, 0.14
22501, 0.66, -0.35, 0.70, -0.14, -1.33, -0.07
22502, 0.65, -0.35, 0.69, 0.21, -1.19, 0.14
22503, 0.66, -0.35, 0.70, 0.35, -1.19, 0.35
22504, 0.65, -0.35, 0.70, -0.14, -1.12, 0.35
22505, 0.65, -0.35, 0.69, 0.42, -1.19, 0.00
22506, 0.65, -0.35, 0.69, -0.07, -1.26, 0.07
22507, 0.66, -0.35, 0.69, -0.07, -1.54, 0.21
22508, 0.65, -0.35, 0.69, 0.14, -1.33, 0.35
22509, 0.65, -0.35, 0.69, 0.07, -1.33, 0.00
22510, 0.65, -0.35, 0.69, 0.07, -1.61, 0.14
22511, 0.65, -0.35, 0.70, 0.49, -2.03, 0.42
22512, 0.65, -0.35, 0.70, 0.77, -0.98, 0.21
22513, 0.66, -0.35, 0.70, 0.77, -0.63, 0.49
22514, 0.66, -0.35, 0.69, 0.07, -0.28, 0.63
22515, 0.65, -0.35, 0.69, 0.56, -0.21, 0.42
22516, 0.65, -0.35, 0.69, 0.14, 0.14, -0.14
22517, 0.65, -0.36, 0.70, 0.56, -0.14, 0.00
22518, 0.65, -0.35, 0.69, 0.35, -0.28, 0.14
22519, 0.66, -0.35, 0.70, 0.49, -0.70, 0.14
22520, 0.65, -0.35, 0.70, 0.14, -0.28, 0.14
22521, 0.65, -0.35, 0.69, 0.84, 0.35, 0.07
22522, 0.65, -0.35, 0.70, 0.42, 0.21, -0.07
22523, 0.65, -0.35, 0.70, 0.56, 0.42, 0.28
22524, 0.65, -0.35, 0.70, 0.42, 0.35, 0.07
22525, 0.65, -0.35, 0.70, 1.05, -0.07, 0.21
22526, 0.65, -0.35, 0.70, 0.91, 0.42, 0.14
22527, 0.65, -0.35, 0.70, 0.28, -0.14, 0.07
22528, 0.65, -0.35, 0.70, 0.63, 17.85, 0.14
22529, 0.65, -0.35, 0.70, 0.28, -0.42, 0.07
22530, 0.65, -0.35, 0.70, 0.70, -0.07, 0.00
22531, 0.65, -0.35, 0.70, 0.63, -0.28, 0.14
22532, 0.65, -0.35, 0.70, 0.49, -0.35, 0.35
22533, 0.65, -0.35, 0.70, 0.63, -0.77, 0.35
22534, 0.65, -0.35, 0.70, 0.28, -0.49, 0.21
22535, 0.65, -0.35, 0.70, 0.77, -0.91, 0.49
22536, 0.65, -0.35, 0.70, 0.14, -0.49, 0.35
22537, 0.64, -0.35, 0.70, 0.63, -0.28, 0.21
22538, 0.64, -0.35, 0.70, 0.91, -0.49, 0.49
22539, 0.64, -0.35, 0.70, 1.33, -0.70, 0.91
22540, 0.64, -0.35, 0.70, 1.82, -0.84, 0.91
22541, 0.64, -0.35, 0.70, 1.54, -1.19, 0.56
22542, 0.65, -0.35, 0.70, 1.26, -1.61, 0.56
22543, 0.64, -0.35, 0.71, 0.84, -1.68, 0.49
22544, 0.65, -0.35, 0.70, 0.21, -1.54, 0.28
22545, 0.64, -0.35, 0.70, 0.14, -1.89, 0.35
22546, 0.65, -0.35, 0.70, 0.28, -1.89, 0.21
22547, 0.65, -0.35, 0.70, -0.35, -1.61, 0.07
22548, 0.64, -0.35, 0.70, -0.14, -1.82, -0.07
22549, 0.65, -0.35, 0.70, -0.14, -2.17, 0.14
22550, 0.65, -0.35, 0.70, -0.35, -2.24, -0.07
22551, 0.65, -0.35, 0.70, -0.21, -2.31, 0.07
22552, 0.65, -0.35, 0.70, -0.21, -1.75, 0.14
22553, 0.65, -0.35, 0.70, -0.14, -1.68, -0.14
22554, 0.65, -0.35, 0.70, -0.21, -1.75, -0.14
22555, 0.65, -0.35, 0.70, 0.00, -1.89, 0.35
22556, 0.65, -0.35, 0.70, 0.07, -2.10, 0.28
22557, 0.65, -0.35, 0.70, 0.21, -1.68, 0.07
22558, 0.65, -0.35, 0.70, 0.07, -1.75, 0.42
22559, 0.65, -0.35, 0.70, 0.14, -1.68, 0.21
22560, 0.65, -0.35, 0.70, -0.07, -1.75, 0.07
22561, 0.65, -0.35, 0.70, -0.07, -2.03, 0.21
22562, 0.65, -0.35, 0.70, 0.14, -2.10, 0.00
22563, 0.65, -0.35, 0.70, 0.00, -2.10, 0.21
22564, 0.65, -0.35, 0.70, -0.14, -1.82, 0.14
22565, 0.65, -0.35, 0.70, 0.07, -1.96, 0.00
22566, 0.65, -0.35, 0.70, -0.21, -1.96, 0.07
22567, 0.65, -0.35, 0.70, -0.14, -1.61, 0.35
22568, 0.65, -0.35, 0.70, 0.00, -1.96, 0.21
22569, 0.65, -0.35, 0.69, -0.14, -1.54, -0.28
22570, 0.65, -0.35, 0.70, 0.70, -2.24, 0.21
22571, 0.65, -0.35, 0.70, 0.00, -1.82, 0.42
22572, 0.65, -0.35, 0.70, -0.07, -1.61, 0.21
22573, 0.65, -0.35, 0.70, 0.00, -1.61, 0.07
22574, 0.65, -0.35, 0.69, 0.14, -1.61, 0.35
22575, 0.65, -0.35, 0.70, 0.28, -1.33, 0.35
22576, 0.65, -0.35, 0.70, 0.14, -1.47, 0.14
22577, 0.65, -0.35, 0.69, 0.07, -1.89, 0.14
22578, 0.66, -0.35, 0.69, -0.07, -1.54, 0.14
22579, 0.65, -0.35, 0.70, 0.21, -1.47, 0.35
22580, 0.65, -0.35, 0.69, 0.21, -1.68, 0.21
22581, 0.65, -0.35, 0.69, 0.14, -1.68, 0.14
22582, 0.65, -0.35, 0.69, 0.35, -1.82, 0.35
22583, 0.65, -0.34, 0.70, 0.28, -0.21, 0.56
22584, 0.65, -0.35, 0.69, 0.49, -0.42, 0.56
22585, 0.65, -0.35, 0.69, 0.21, 0.35, 0.28
22586, 0.65, -0.35, 0.69, 0.49, -0.42, -0.07
22587, 0.65, -0.35, 0.70, 0.35, -0.35, -0.14
22588, 0.65, -0.35, 0.70, 0.63, 0.14, 0.28
22589, 0.65, -0.35, 0.69, 0.56, -0.07, 0.28
22590, 0.65, -0.35, 0.70, 0.56, -0.21, 0.14
22591, 0.65, -0.35, 0.70, 0.84, -0.21, 0.21
22592, 0.65, -0.35, 0.70, 0.14, 0.00, 0.00
22593, 0.65, -0.35, 0.70, 0.28, 0.35, 0.00
22594, 0.65, -0.35, 0.70, 0.42, -0.07, 0.14
22595, 0.65, -0.35, 0.70, 0.63, 0.00, 0.28
22596, 0.65, -0.35, 0.70, 0.63, 0.35, -0.14
22597, 0.65, -0.35, 0.70, 0.84, -0.35, -0.35
22598, 0.65, -0.35, 0.70, 0.14, -0.28, -0.28
22599, 0.65, -0.35, 0.70, 0.21, 0.21, -0.28
22600, 0.65, -0.35, 0.70, 0.35, 0.35, -0.70
22601, 0.65, -0.35, 0.70, 0.07, 0.91, -0.77
22602, 0.65, -0.35, 0.70, 0.56, 0.49, -0.21
22603, 0.65, -0.35, 0.70, 0.70, 0.21, -0.91
22604, 0.65, -0.35, 0.70, 0.98, 1.19, -0.07
22605, 0.64, -0.34, 0.70, 0.91, -0.07, 0.49
22606, 0.64, -0.35, 0.70, 1.19, -0.91, 1.33
22607, 0.64, -0.34, 0.71, 1.47, -0.70, 1.26
22608, 0.65, -0.35, 0.71, 1.26, -0.91, 0.77
22609, 0.64, -0.34, 0.70, 1.26, -0.91, 0.77
22610, 0.64, -0.35, 0.70, 0.91, -0.63, 1.05
22611, 0.64, -0.35, 0.70, 1.19, -0.84, 0.70
22612, 0.64, -0.35, 0.70, 0.84, -1.26, 0.42
22613, 0.64, -0.35, 0.71, 0.91, -1.26, 0.35
22614, 0.64, -0.35, 0.70, 0.56, -2.17, 0.56
22615, 0.64, -0.35, 0.70, 0.70, -1.96, 0.91
22616, 0.65, -0.35, 0.70, 0.28, -2.17, 0.63
22617, 0.64, -0.35, 0.70, -0.14, -2.17, 0.21
22618, 0.65, -0.35, 0.70, 0.07, -2.59, 0.28
22619, 0.65, -0.35, 0.71, -0.35, -2.87, 0.28
22620, 0.65, -0.35, 0.70, -0.35, -2.94, 0.21
22621, 0.65, -0.34, 0.70, -0.07, -2.31, 0.56
22622, 0.65, -0.35, 0.70, -0.28, -1.89, 0.77
22623, 0.65, -0.35, 0.70, 0.07, -2.10, 0.28
22624, 0.65, -0.35, 0.70, -0.28, -1.68, -0.56
22625, 0.65, -0.35, 0.70, -0.28, -2.03, -0.91
22626, 0.65, -0.35, 0.70, 0.21, -1.47, -0.56
22627, 0.65, -0.35, 0.70, -0.14, -1.68, 0.00
22628, 0.65, -0.35, 0.70, -0.35, -1.40, 0.07
22629, 0.65, -0.35, 0.70, -0.35, -1.54, 0.14
22630, 0.65, -0.35, 0.70, 0.07, -2.24, 0.07
22631, 0.65, -0.35, 0.70, 0.07, -1.89, 0.49
22632, 0.65, -0.35, 0.70, 0.21, -2.31, 0.00
22633, 0.65, -0.35, 0.70, -0.56, -1.61, -0.35
22634, 0.65, -0.35, 0.70, -0.70, -1.89, 0.00
22635, 0.65, -0.35, 0.70, -0.35, -1.82, 0.00
22636, 0.65, -0.35, 0.70, -0.35, -1.54, -0.14
22637, 0.65, -0.35, 0.70, -0.35, -1.61, -0.07
22638, 0.65, -0.35, 0.70, -0.28, -1.82, 0.42
22639, 0.65, -0.35, 0.70, 0.00, -2.24, 0.56
22640, 0.65, -0.35, 0.70, -0.21, -1.82, 0.00
22641, 0.65, -0.35, 0.69, 0.00, -2.17, 0.28
22642, 0.66, -0.35, 0.70, 0.35, -2.03, 0.63
22643, 0.65, -0.35, 0.70, 0.00, -1.68, 0.14
22644, 0.65, -0.35, 0.69, -0.28, -0.98, 0.00
22645, 0.65, -0.35, 0.70, 0.07, -1.19, 0.42
22646, 0.66, -0.35, 0.70, 0.07, -1.12, 0.21
22647, 0.65, -0.35, 0.70, 0.28, -1.05, 0.21
22648, 0.65, -0.35, 0.70, -0.07, -1.33, -0.07
22649, 0.65, -0.35, 0.69, 0.07, -1.47, 0.07
22650, 0.65, -0.35, 0.70, 0.21, -1.75, 0.35
22651, 0.65, -0.35, 0.70, 0.00, -0.98, 0.35
22652, 0.65, -0.35, 0.70, 0.07, -0.14, 0.14
22653, 0.65, -0.35, 0.70, -0.70, 0.21, 0.14
22654, 0.65, -0.35, 0.69, 0.28, 0.21, 0.07
