t,ax,ay,az,gx,gy,gz
6226, 0.55, 0.07, 0.04, 309.26, 91.42, 593.74
6227, -0.30, 0.84, 0.65, 133.63, 331.10, 519.33
6228, -1.96, 0.98, 1.68, -30.52, 167.51, 501.83
6229, -1.31, 0.17, 0.90, -148.12, 149.38, 488.67
6230, -1.10, 0.45, 0.76, -151.62, 104.93, 527.52
6231, -0.54, 0.32, 0.14, 15.19, -172.13, 347.83
6232, -1.63, -0.95, 1.36, 83.44, -65.24, 535.64
6233, -1.80, -0.46, 0.51, -132.65, 26.60, 454.58
6234, -1.83, -0.54, 0.72, -198.73, -50.96, 497.91
6235, -1.05, 0.36, 0.84, -167.44, -141.05, 490.70
6236, -0.98, 0.12, 0.91, -244.65, -53.90, 491.05
6237, -1.08, 0.12, 0.45, -247.80, -64.54, 472.22
6238, -1.46, 0.47, 0.21, -151.83, -146.93, 464.17
6239, -1.29, -0.00, 0.33, -253.26, -244.86, 423.36
6240, -0.16, -0.66, 0.35, -234.43, -318.01, 268.45
6241, -0.63, -1.05, 0.81, -38.99, -249.62, 347.76
6242, -0.28, -0.81, 2.12, -146.02, -194.60, 325.99
6243, -0.19, -0.99, 1.30, 135.45, 80.15, 222.04
6244, -0.71, 0.16, 1.04, -19.32, 148.82, 234.29
6245, -0.92, 0.27, 1.05, -0.91, 98.63, 179.69
6246, -0.47, 0.14, 0.33, -47.46, -292.11, 69.02
6247, 0.13, -0.30, 0.48, -117.32, -392.21, 99.61
6248, -0.71, -1.90, 1.56, 184.31, -133.00, 387.94
6249, -0.16, -1.56, 0.45, 215.74, -207.55, 347.83
6250, 0.84, -1.35, 0.80, 77.14, -32.20, 184.80
6251, 0.66, -0.60, 0.87, 73.43, 32.06, 204.96
6252, 0.27, -0.06, 1.01, 166.74, 47.32, 189.28
6253, 0.28, 0.15, 1.24, 48.79, 56.28, 178.99
6254, -0.45, 0.32, 1.35, 62.30, 86.10, 259.84
6255, -0.18, 0.83, 0.88, 7.56, 53.83, 167.65
6256, -0.05, -0.42, 1.07, -35.70, 90.37, -1.05
6257, -0.46, -0.94, 1.27, -0.70, 73.64, -79.87
6258, -0.47, -0.23, 1.12, -13.51, 104.02, -96.67
6259, -0.42, -0.09, 0.99, -3.85, 68.74, -85.54
6260, -0.43, -0.16, 0.97, -23.10, 46.41, -67.76
6261, 0.23, 0.03, 0.98, 165.06, 158.76, 38.43
6262, 0.15, 0.26, 0.16, 31.01, 211.12, -100.87
6263, 0.11, -0.03, 0.92, 49.00, 81.48, -180.74
6264, -0.60, 0.35, 1.24, 108.08, 86.66, -204.05
6265, -0.86, 0.52, 0.86, -35.28, -50.68, -178.64
6266, -0.64, 0.48, 0.78, -150.01, -253.40, -173.67
6267, -0.26, -0.00, 0.77, -229.81, -319.48, -91.49
6268, 0.26, -0.36, 0.99, -163.38, -243.39, -15.75
6269, 0.41, -0.58, 1.15, -89.95, -87.43, 18.06
6270, 0.26, -0.91, 1.35, -6.30, -87.78, 73.15
6271, 0.19, -0.97, 1.10, -34.72, -62.02, 63.91
6272, -0.13, -0.90, 0.30, 47.39, 103.46, 79.94
6273, -0.00, -0.69, 1.04, 92.68, 48.51, 92.12
6274, 0.41, -0.43, 0.74, 213.08, 148.05, 39.76
6275, 1.08, -0.94, 0.68, 177.66, 116.48, -42.00
6276, 0.32, -1.12, 1.53, 259.49, 201.46, -232.40
6277, -0.92, -1.02, 0.70, 259.70, 196.21, -406.28
6278, -2.28, 0.39, -1.08, 409.01, 153.58, -445.48
6279, -0.90, -0.31, -0.01, 18.13, -230.86, -428.54
6280, -0.35, -0.19, 1.25, 163.73, -150.71, -362.81
6281, 0.84, -0.20, 1.59, -62.09, -186.13, -670.53
6282, -0.45, 0.05, 1.98, 52.92, 39.76, -556.01
6283, 1.05, -0.97, 0.29, 114.94, -127.12, -314.02
6284, 0.03, -1.36, 0.88, 197.82, 30.03, -256.69
6285, -0.40, -0.44, 1.24, -168.49, 96.95, -278.46
6286, -0.08, -0.56, 1.05, -179.13, 70.21, -294.28
6287, 0.56, -0.85, 0.85, -148.68, 35.07, -347.20
6288, 1.17, -1.36, 0.23, -195.65, 161.70, -381.57
6289, 0.22, -1.57, -0.23, -4.90, 446.11, -388.22
6290, -0.99, -2.11, -0.22, 230.23, 396.06, -381.57
6291, -1.56, -2.18, -0.12, 265.23, 376.95, -271.67
6292, -1.56, -0.83, 0.20, 387.10, 91.70, -367.57
6293, -0.81, -0.97, 0.93, 409.78, 14.77, -486.57
6294, -0.69, -1.17, 0.38, 293.44, 213.57, -442.54
6295, -0.11, -0.35, -0.14, 376.32, 12.04, -442.47
6296, -0.43, -0.35, 0.02, 297.92, -161.56, -527.52
6297, -0.31, -0.82, -0.25, 22.05, -192.43, -513.87
6298, -0.19, -1.63, 0.85, -499.87, -31.64, -553.42
6299, 0.48, -1.44, 0.19, -457.66, 310.38, -530.25
6300, 0.85, -2.50, -0.66, -132.37, 337.89, -359.45
6301, -0.11, -2.00, -0.03, 305.13, 340.55, -299.81
6302, -0.85, -1.36, -0.69, 390.32, 396.83, -335.02
6303, -1.85, -2.27, 0.04, 291.90, 310.59, -460.11
6304, -1.20, -2.12, -0.19, 425.95, 291.06, -440.44
6305, -1.60, -0.98, 0.68, 554.19, 269.57, -520.17
6306, -1.02, -0.59, 0.30, 440.51, 168.07, -517.23
6307, -1.05, -0.88, -0.41, 386.26, 133.35, -382.90
6308, -0.36, -0.60, 1.00, 196.14, 36.82, -561.61
6309, -0.30, -2.68, 3.09, 310.80, 8.61, -804.72
6310, 0.30, -1.16, -0.08, -259.77, 138.18, -601.23
6311, -0.87, -2.45, -0.69, -360.50, 424.20, -157.43
6312, -0.85, -1.72, -0.69, -24.15, 168.49, -274.26
6313, -0.14, -2.08, -0.44, 205.59, 139.65, -305.48
6314, -1.00, -2.10, -0.44, 152.39, 248.08, -383.53
6315, -1.18, -2.04, -0.08, 211.40, 320.39, -338.10
6316, -1.05, -2.27, -0.52, 417.62, 369.81, -302.89
6317, -1.36, -1.66, -0.67, 551.04, 226.59, -376.32
6318, -1.80, -1.16, -0.32, 567.98, 178.22, -405.23
6319, -1.35, -0.30, 0.00, 595.63, 166.53, -330.75
6320, -0.59, 0.33, 0.29, 460.46, 80.64, -356.16
6321, 0.10, -0.14, 0.29, 322.21, 0.91, -459.76
6322, -1.52, -1.24, 3.95, 506.38, 31.15, -476.70
6323, -0.37, -0.12, -0.03, -373.17, -31.64, -483.70
6324, -0.66, -1.19, 0.08, -472.99, 122.85, -373.31
6325, -0.69, -1.25, 0.05, -420.42, 103.88, -340.27
6326, 0.01, -1.65, -0.41, -179.97, 73.36, -283.15
6327, -0.71, -2.90, 1.71, 70.35, 385.70, -138.74
6328, -1.45, -2.73, -0.05, 283.64, 98.42, -393.05
6329, -1.01, -2.67, -0.43, 714.35, 322.84, -346.71
6330, -1.60, -1.43, -0.32, 678.44, 215.04, -457.80
6331, -1.89, 0.23, -0.01, 776.58, 93.66, -546.35
6332, -1.91, 0.86, 0.55, 259.49, -53.34, -522.48
6333, 0.86, 0.54, 1.76, -187.95, -163.45, -868.77
6334, 0.85, -0.74, -0.92, -271.25, 169.68, -955.01
6335, -0.62, -3.22, 2.63, -130.27, 482.30, -197.82
6336, -0.52, -2.24, -2.05, 163.73, 353.57, -106.19
6337, -1.63, -0.79, 0.98, 343.98, 64.19, -80.85
6338, -1.01, -0.57, 0.52, 499.73, -67.41, -711.55
6339, -1.57, -1.47, 0.70, 298.76, 136.50, -794.78
6340, -0.16, -1.11, 0.45, 186.27, -17.15, -640.57
6341, 0.72, -1.08, -0.26, -69.51, 55.93, -687.47
6342, -0.68, -1.94, 0.32, -118.72, 425.46, -83.51
6343, -1.23, -0.99, 0.48, -333.27, 322.70, -353.36
6344, -0.09, -1.59, -0.02, -163.38, 311.50, -418.67
6345, 1.24, -1.41, -0.73, -52.57, 221.41, -408.31
6346, 0.76, -1.98, -0.65, 242.27, 345.52, -372.47
6347, -0.06, -2.54, -0.71, 192.78, 473.20, -429.87
6348, -1.22, -3.07, -1.11, 253.61, 519.33, -309.68
6349, -1.74, -2.22, -1.49, 637.49, 377.79, -171.57
6350, -2.11, -1.56, -1.05, 814.87, 221.13, -228.55
6351, -1.80, -0.19, -0.54, 865.48, 143.08, -280.07
6352, -0.55, 0.70, -0.10, 660.73, 45.50, -283.57
6353, -0.02, 0.45, 0.40, 334.88, -73.01, -489.16
6354, -0.84, -0.12, 0.46, 133.63, -366.94, -527.31
6355, -0.76, -0.08, -0.13, -940.59, -20.79, -612.78
6356, 0.37, -1.02, -0.52, -729.26, 378.91, -545.58
6357, -0.10, -2.65, 0.25, -163.38, 200.06, -364.98
6358, 1.37, -4.46, -1.04, 183.40, 195.23, -282.94
6359, -1.19, -3.35, -0.75, 449.47, 370.86, -238.98
6360, -1.40, -1.86, -1.55, 766.64, 376.74, -252.35
6361, -1.83, -1.48, -1.23, 1011.92, 270.76, -376.25
6362, -1.83, -1.17, -0.55, 934.50, 256.20, -328.02
6363, -1.79, 0.87, 0.05, 663.81, 159.25, -313.88
6364, -1.76, 0.39, 2.24, 529.62, -125.09, -672.70
6365, -0.79, 0.07, -0.61, -622.44, -230.93, -753.41
6366, -0.57, -0.98, 0.21, -573.72, 185.36, -497.70
6367, -0.31, -2.42, -0.12, -201.32, 169.40, -436.59
6368, 0.53, -1.86, -0.38, 204.54, 139.09, -445.62
6369, -0.11, -1.79, -0.32, 266.28, 372.89, -579.25
6370, -2.09, -3.01, 0.58, 210.63, 521.71, -367.15
6371, -1.17, -2.78, -2.07, 496.93, 472.36, -269.78
6372, -2.37, -2.07, -0.66, 869.33, 283.92, -147.21
6373, -1.41, -0.41, -0.77, 853.93, 127.75, -179.06
6374, -0.59, 0.51, 0.21, 626.15, 14.56, -265.65
6375, -0.21, 0.25, 0.28, 470.05, -35.98, -555.24
6376, -1.17, -0.29, -0.91, 144.48, -326.06, -585.55
6377, -0.79, -0.43, 0.49, -390.25, 12.11, -552.65
6378, -0.48, -0.97, 0.61, -380.80, 198.24, -437.50
6379, -0.37, -1.51, 0.24, -109.48, 85.68, -404.67
6380, 0.45, -1.29, -0.09, 89.32, 55.65, -418.81
6381, 0.99, -2.01, -0.71, 43.19, 220.85, -466.83
6382, -1.03, -3.03, 0.15, -96.25, 468.72, -394.17
6383, -1.51, -2.67, -1.09, 258.37, 385.56, -171.85
6384, -1.66, -1.53, -1.29, 726.18, 230.44, -150.29
6385, -1.39, -1.14, -0.04, 814.73, 94.50, -285.11
6386, -0.80, -0.54, 0.37, 785.96, 252.98, -283.78
6387, 0.01, -0.75, -0.37, 460.53, 228.62, -392.91
6388, -0.52, -0.95, -0.22, 299.25, -8.82, -477.19
6389, -2.19, -0.49, 0.77, -309.12, -8.26, -391.86
6390, -0.95, -0.08, 0.25, -276.99, 97.44, -456.26
6391, -0.04, -0.48, -0.23, -28.56, 137.13, -434.77
6392, 0.29, -1.79, -0.48, 121.17, 247.17, -313.95
6393, -2.38, -2.49, 0.05, 10.92, 290.36, -507.43
6394, -0.95, -1.11, -1.32, 438.34, 175.91, -324.10
6395, -1.49, 0.83, -0.28, 641.62, -297.99, -204.96
6396, -1.50, 1.06, 0.83, 524.51, -349.37, -262.43
6397, -0.08, 0.11, 2.02, -36.68, -183.96, -417.06
6398, -0.85, -0.53, 0.39, -12.81, -166.74, -126.21
6399, -1.34, -0.46, 0.98, 69.23, -484.82, -132.09
6400, -0.59, -0.27, 0.99, 225.05, -752.85, -54.25
6401, 1.73, 0.26, 1.56, -130.83, -319.41, 46.48
6402, 0.55, -1.61, 1.15, 44.87, -126.91, 13.86
6403, 1.19, -0.59, 1.14, 239.26, -90.44, -15.75
6404, 0.77, -0.24, 0.59, 236.60, -60.41, 33.53
6405, 0.79, -0.14, 0.80, 139.09, 0.42, 106.75
6406, 1.01, -0.01, 0.30, 109.62, 167.44, 82.46
6407, 1.00, 0.74, 0.39, 138.53, 345.45, 139.86
6408, 1.08, 0.95, 0.10, 294.70, 356.65, 373.73
6409, 0.34, 0.65, 0.78, 142.03, 298.97, 298.55
6410, -0.43, 0.62, 1.25, -6.30, 141.54, 263.13
6411, -0.49, 0.70, 1.04, -26.53, 123.27, 225.40
6412, -0.27, -0.17, 1.11, -145.46, 71.40, 198.59
6413, -0.00, -0.50, 1.31, -70.14, 128.73, 252.07
6414, -0.17, -0.18, 1.20, 7.07, 109.34, 269.50
6415, -0.28, 0.25, 0.81, -16.38, 89.32, 291.62
6416, -0.20, 0.13, 0.58, -81.83, 17.99, 289.31
6417, -0.11, -0.20, 0.59, -84.84, -36.54, 266.00
6418, -0.17, -0.39, 0.38, -94.50, -57.40, 223.93
6419, -0.13, -0.58, 0.70, -29.82, -45.50, 140.14
6420, -0.04, -0.61, 0.75, -113.26, -2.45, 13.23
6421, 0.22, -0.44, 0.28, 23.80, 76.65, 115.43
6422, 0.21, -1.15, 1.22, 139.23, 65.38, 126.56
6423, 0.21, -0.70, 1.49, 178.36, 33.74, -90.79
6424, -0.25, -1.32, 1.38, 205.87, 139.72, -157.99
6425, -0.61, -0.74, 0.73, 133.77, 64.96, -287.63
6426, -0.50, -0.33, 0.70, 160.30, 128.59, -280.35
6427, -0.78, -0.10, 1.46, 181.86, 108.99, -152.88
6428, -0.60, 0.57, 0.61, 245.56, 60.13, -107.45
6429, -0.50, 0.20, 1.10, 183.26, 10.78, -174.79
6430, -0.53, 0.45, 0.59, 128.24, -78.82, -146.72
6431, -0.51, 0.63, 0.66, 7.07, -98.21, -69.86
6432, -0.70, 1.00, 0.94, -148.26, -99.33, 6.93
6433, -0.73, 0.77, 0.71, -336.63, -151.20, 94.22
6434, -0.84, 0.26, 0.99, -351.47, -166.39, 199.57
6435, -0.94, -0.69, 1.23, -227.36, -223.86, 314.37
6436, -0.78, -0.32, 1.25, 26.39, -169.89, 418.32
6437, -0.57, 0.09, 1.07, -10.71, -17.85, 420.63
6438, -1.01, 0.37, 1.10, -157.92, 14.21, 396.27
6439, -1.82, 0.15, -0.20, -196.21, -4.41, 525.63
6440, -0.89, -1.62, 0.69, -178.50, -173.04, 552.02
6441, -0.70, -0.39, 0.28, -205.45, -168.35, 478.31
6442, -0.65, -0.93, 1.35, -85.33, -156.66, 470.89
6443, -0.77, -0.64, 0.40, -100.24, -169.19, 546.14
6444, 0.07, -0.24, -0.06, -93.59, -239.89, 470.12
6445, 0.16, 0.24, 0.07, 69.44, -286.58, 187.32
6446, -0.42, -0.27, 0.67, 302.68, -191.03, 200.83
6447, -0.02, -1.04, 1.00, 141.26, -52.08, 102.90
6448, -0.76, -0.62, 1.27, 224.14, 102.27, 48.37
6449, -0.61, -0.52, 1.23, 204.54, 8.26, -0.49
6450, -0.12, -0.41, 1.47, 72.17, -28.84, -94.78
6451, -0.10, -0.52, 1.39, 3.43, 14.21, -197.19
6452, 0.01, -0.59, 1.28, 11.55, 53.62, -261.45
6453, 0.01, -0.49, 1.29, 30.17, 67.97, -295.68
6454, -0.09, -0.34, 1.00, 118.65, 13.23, -310.10
6455, -0.11, 0.21, 1.09, 83.72, -8.82, -248.99
6456, -0.17, 0.30, 1.06, 80.43, 26.74, -198.31
6457, -0.27, -0.07, 0.48, 95.97, 27.58, -78.82
6458, -0.27, 0.35, 0.78, 118.44, -21.28, -82.18
6459, -0.24, 0.50, 0.48, 33.67, -104.37, -94.08
6460, -0.05, 0.50, 0.80, -38.01, -74.90, -77.56
6461, -0.02, 0.54, 0.26, -149.03, -25.90, -17.85
6462, -0.09, 0.41, 0.34, -248.57, -88.06, 53.48
6463, -0.29, 0.42, 0.88, -245.63, -173.46, 75.25
6464, -0.07, 0.14, 1.01, -125.16, -131.11, 33.53
6465, 0.43, -0.38, 1.40, -76.16, -64.96, 74.20
6466, -0.00, -0.28, 1.31, 9.87, 86.59, 172.69
6467, -0.06, 0.19, 0.97, -23.45, 45.64, 131.60
6468, -0.27, 0.21, 1.27, -89.32, -21.00, 21.77
6469, -0.46, -0.55, 1.48, -30.38, 5.39, -39.76
6470, -1.22, -0.32, 0.97, 136.57, 21.91, 158.55
6471, -0.36, 0.01, 0.18, -180.88, -230.02, 282.17
6472, 0.01, -0.25, 1.04, -144.34, -132.72, 313.67
6473, -0.18, -0.42, 0.26, -95.41, -117.67, 317.38
6474, -0.88, 0.13, 1.09, 121.45, -15.89, 457.73
6475, -0.17, -1.33, 1.30, -282.73, -230.30, 269.43
6476, 0.49, -0.90, 0.34, -46.83, -129.78, 144.69
6477, 0.31, -1.29, 0.78, 238.70, -43.26, 157.08
6478, 0.38, -0.66, 1.35, 208.74, -27.51, 204.33
6479, 0.06, -0.27, 1.14, 224.70, 27.37, 209.86
6480, 0.12, -0.16, 1.05, 189.70, 45.01, 139.65
6481, -0.14, -0.82, 1.53, 156.59, 78.40, 43.40
6482, -0.41, -0.61, 1.30, 65.10, 94.43, -134.82
6483, -0.55, -0.59, 1.48, 54.53, 13.79, -188.93
6484, -0.22, -0.72, 1.41, 42.35, -4.69, -321.65
6485, 0.41, -1.08, 0.66, 49.49, 58.66, -546.42
6486, 0.24, -0.43, 1.28, 98.91, -82.60, -424.34
6487, 0.72, 0.08, 0.38, 13.23, 77.84, -403.83
6488, -0.06, 0.06, 0.73, 15.96, 166.39, -445.27
6489, -0.06, -0.12, 0.39, -3.50, 180.18, -454.79
6490, 0.13, -0.16, 0.16, -16.38, 194.81, -415.45
6491, -0.29, -0.72, 0.99, 13.44, 200.69, -325.29
6492, -0.90, -0.79, 1.05, 183.05, 91.42, -302.47
6493, -0.85, -0.25, 0.04, 173.95, -53.27, -174.65
6494, -0.56, 0.18, 0.27, 32.41, -151.41, -164.29
6495, -1.02, -0.06, 1.21, -67.69, -96.95, -36.12
6496, -0.79, 0.34, 1.08, -109.55, 57.89, -2.94
6497, -0.66, -0.28, 0.79, -93.80, 7.77, -16.80
6498, -0.92, -0.48, 1.24, 0.42, -33.67, 48.51
6499, -0.59, 0.01, 1.31, 47.11, 28.28, 85.33
6500, -0.54, 0.02, 0.85, -23.59, 7.84, 73.92
6501, -0.50, -0.14, 0.76, -52.01, -50.68, 67.90
6502, -0.69, -0.44, 0.94, -59.29, -88.41, 85.82
6503, -0.43, -0.46, 1.25, -40.32, -122.43, 64.54
6504, -0.05, -0.24, 0.85, -35.14, -103.60, 30.45
6505, 0.13, -0.38, 0.96, -36.96, -98.49, 18.41
6506, 0.05, -0.33, 0.91, 35.98, -56.14, 30.03
6507, 0.14, -0.27, 1.13, 45.85, -34.44, 2.24
6508, 0.16, -0.12, 1.00, 20.09, -42.91, 15.96
6509, 0.28, -0.07, 0.66, -4.76, 0.14, 97.44
6510, 0.22, 0.28, 0.93, 35.84, 60.62, 178.85
6511, 0.01, 0.20, 0.88, 27.65, 152.11, 147.49
6512, -0.78, -0.27, 0.95, 7.14, 166.67, 145.32
6513, -1.13, -0.12, 0.87, -28.14, -19.11, 149.80
6514, -0.57, -0.24, 0.81, -75.04, -71.68, 101.15
6515, -0.27, -0.71, 0.79, -53.83, -72.66, 79.73
6516, -0.29, -0.52, 1.04, -15.47, -26.81, 42.70
6517, -0.10, -0.70, 0.75, -1.96, -1.82, -2.87
6518, -0.25, -0.59, 0.94, 35.77, 22.33, -52.15
6519, -0.19, -0.64, 0.89, 67.90, 20.86, -103.46
6520, -0.26, -0.55, 0.95, 109.48, 34.65, -107.73
6521, -0.26, -0.38, 0.97, 108.64, 39.48, -130.90
6522, -0.48, -0.32, 1.10, 114.17, 18.83, -171.29
6523, -0.19, -0.21, 1.13, 65.45, 5.53, -248.64
6524, -0.02, -0.14, 1.25, 146.44, 53.20, -241.57
6525, 0.04, -0.01, 0.67, 142.59, 127.61, -229.67
6526, -0.31, 0.06, 0.76, 87.92, 134.19, -263.20
6527, -0.34, 0.02, 0.40, 138.18, 120.96, -177.38
6528, -0.79, 0.41, 0.66, 139.65, 49.56, -127.96
6529, -0.99, 0.54, 0.80, -70.14, -62.86, -65.24
6530, -0.91, 0.57, 0.79, -184.31, -37.24, 0.91
6531, -0.76, 0.13, 0.91, -153.72, -74.27, 51.17
6532, -0.63, 0.01, 1.01, -111.09, -87.92, 94.64
6533, -0.61, -0.09, 0.87, -95.97, -96.67, 136.36
6534, -0.59, -0.07, 1.03, -58.03, -106.54, 168.42
6535, -0.52, -0.10, 1.01, -77.77, -87.99, 142.31
6536, -0.60, -0.24, 1.02, -54.04, -114.66, 126.00
6537, -0.77, -0.04, 1.17, -23.94, -115.92, 158.90
6538, -0.73, -0.12, 0.79, -28.28, -150.71, 206.22
6539, -0.60, -0.41, 1.00, -150.36, -123.90, 275.17
6540, -0.09, -0.27, 0.60, -183.61, -168.84, 256.06
6541, -0.05, -0.51, 0.89, -179.69, -162.89, 187.32
6542, -0.03, -0.82, 0.83, -171.22, -173.18, 80.43
6543, 0.25, -0.62, 0.43, -129.99, -90.58, 25.06
6544, 0.25, -0.60, 0.72, 9.94, -106.82, 77.14
6545, 0.50, -0.67, 0.56, 54.18, -77.00, 100.80
6546, 0.46, -0.79, 0.85, 120.61, 17.78, 80.78
6547, 0.43, -0.69, 0.78, 129.50, 101.99, 8.82
6548, 0.36, -0.67, 0.93, 100.31, 157.01, -75.18
6549, 0.04, -0.37, 1.19, 69.72, 202.16, -134.89
6550, -0.16, -0.16, 0.86, 141.75, 142.52, -117.60
6551, -0.21, -0.05, 0.97, 43.47, 17.08, -124.39
6552, -0.06, -0.29, 1.12, 19.46, -23.10, -135.59
6553, 0.06, -0.32, 1.08, 33.53, -18.76, -114.73
6554, -0.04, -0.07, 1.00, 42.28, -10.57, -78.12
6555, -0.11, -0.07, 0.97, 30.52, -14.91, -53.13
6556, -0.03, -0.12, 0.93, 9.10, 4.55, -22.82
6557, -0.05, -0.17, 0.96, -7.49, 20.23, 3.43
6558, -0.13, -0.17, 0.96, -3.08, 17.99, 14.91
6559, -0.17, -0.12, 1.00, -5.60, 17.08, 24.50
6560, -0.19, -0.12, 1.00, -11.20, 20.23, 27.72
6561, -0.16, -0.15, 1.01, -17.50, 19.18, 24.99
6562, -0.12, -0.18, 1.05, -18.55, 26.53, 23.52
6563, -0.11, -0.24, 0.98, -21.00, 33.81, 17.57
6564, -0.14, -0.25, 0.99, -7.63, 29.82, 21.70
6565, -0.24, -0.18, 0.97, 7.07, 20.37, 20.30
6566, -0.25, -0.07, 1.00, -9.59, 22.05, 18.90
6567, -0.49, -0.28, 1.00, -26.46, -47.11, -17.43
6568, -0.58, -0.25, 1.26, 89.95, -28.49, 52.29
6569, -0.97, 0.29, 0.91, 60.55, 14.91, 218.47
6570, -0.71, 0.35, 0.81, -98.63, -1.61, 227.22
6571, -0.78, -0.60, 1.24, 30.31, -76.30, 348.11
6572, -0.22, 0.49, 0.75, -113.40, -16.03, 391.16
6573, -0.34, 0.04, 0.48, -498.33, -97.51, 350.14
6574, -0.34, 0.30, -0.41, -318.92, -219.03, 332.15
6575, -0.35, -0.49, -0.18, -272.51, -503.30, 370.37
6576, -1.62, 0.70, 1.35, -238.42, -360.85, -98.77
6577, 1.31, -1.77, 2.14, -329.56, -181.23, 214.83
6578, 0.62, -2.22, 0.38, 83.30, -427.14, 362.11
6579, 0.83, -1.41, 0.09, 306.18, -228.27, 428.82
6580, 0.98, -0.83, 1.07, 141.05, -107.52, 339.01
6581, 0.33, 0.15, 1.08, 147.70, 115.08, 233.03
6582, -0.97, -0.37, 1.49, -25.76, 208.53, 47.67
6583, -1.49, -1.59, 1.66, 43.47, -146.86, 122.99
6584, -1.08, -1.37, 0.77, 213.22, -420.49, 336.35
6585, -0.14, -0.23, 0.56, 33.39, -344.12, 378.42
6586, -0.20, -0.41, 0.85, 32.69, -261.38, 309.61
6587, 0.02, -0.49, 0.55, 102.83, -347.76, 246.54
6588, 0.32, -0.32, 0.32, 92.05, -293.44, 193.90
6589, 0.58, -0.37, 0.38, 36.82, -183.40, 177.59
6590, 0.49, -0.56, 0.81, 36.47, -91.91, 189.14
6591, 0.18, -0.12, 0.43, 155.68, -70.70, 219.10
6592, 0.31, -0.01, 0.63, 167.30, -52.85, 276.43
6593, 0.52, -0.15, 0.67, 180.25, 44.31, 281.75
6594, -0.14, -0.09, 1.41, 99.26, 139.93, 199.08
6595, -0.29, -0.30, 1.15, 41.09, 38.99, 123.34
6596, -0.13, -0.06, 1.20, 9.24, 4.27, 41.65
6597, 0.02, -0.17, 1.06, 3.08, -34.86, 20.09
6598, 0.10, -0.31, 0.99, -23.87, -14.42, 13.51
6599, 0.19, -0.52, 0.93, -9.73, -7.00, -0.84
6600, 0.16, -0.33, 0.96, -31.57, 15.75, 10.22
6601, 0.13, -0.29, 0.89, -50.54, 28.98, 27.58
6602, 0.09, -0.31, 0.91, -28.21, 25.83, 54.74
6603, -0.01, -0.36, 0.93, -3.78, -5.81, 85.26
6604, -0.03, -0.31, 0.86, 5.95, -33.60, 86.73
6605, 0.20, -0.38, 0.96, -44.73, -52.71, 66.64
6606, 0.21, -0.45, 0.89, -15.61, -10.78, 71.19
6607, 0.09, -0.46, 0.75, -0.21, -41.79, 52.50
6608, 0.19, -0.43, 0.94, 20.58, 1.75, 44.73
6609, 0.23, -0.37, 0.82, 45.36, 8.54, 0.56
6610, 0.49, -0.31, 0.97, -10.22, 42.07, -7.77
6611, 0.04, -0.11, 0.88, 58.17, 164.71, 37.94
6612, 0.00, 0.10, 0.85, -8.54, 83.44, 39.62
6613, 0.29, -0.08, 0.54, -107.66, 19.32, -107.45
6614, 0.25, 0.44, 0.11, -111.23, 63.00, -209.72
6615, 0.47, 0.66, 1.93, -9.24, 265.93, -297.64
6616, 0.35, 0.58, 0.70, 241.57, 331.73, -246.05
6617, 0.45, -1.51, 2.84, 216.72, 27.02, -399.91
6618, 2.06, -2.23, 0.12, -532.77, -240.45, -305.20
6619, -0.36, -3.03, 1.81, -44.87, 372.68, -157.15
6620, -0.82, -1.17, 0.29, 336.98, 343.07, 83.79
6621, -0.39, -0.51, 0.24, 282.52, 169.26, -28.63
6622, -0.99, -0.19, 0.89, 152.25, 0.63, -22.12
6623, -1.24, -0.19, 1.88, 34.79, -85.96, -56.63
6624, -0.76, -1.18, 1.62, -117.88, -3.22, -344.19
6625, 1.42, -1.06, 0.90, 116.41, -1.40, -556.50
6626, 0.55, -1.01, 0.80, 151.55, 242.55, -605.50
6627, -0.98, -1.79, 0.67, 217.28, 168.14, -534.94
6628, -0.80, -0.93, 0.62, 377.30, -45.71, -455.07
6629, -0.40, -0.11, 0.97, 394.10, -165.41, -492.45
6630, -0.38, 0.35, 0.89, 162.96, 16.73, -472.85
6631, -0.80, 0.57, 0.49, -184.80, 59.29, -381.43
6632, 0.28, 0.41, 0.31, -271.04, -28.56, -478.38
6633, 1.27, 0.24, 0.15, -268.17, -51.10, -542.29
6634, 1.20, -0.70, 1.90, -225.75, 170.94, -572.67
6635, 0.40, -1.54, 0.06, -847.07, 190.40, -463.05
6636, 0.12, -2.35, -0.04, -304.85, 367.22, -95.90
6637, -0.14, -1.68, 0.00, 150.57, 152.88, -47.95
6638, 0.34, -1.11, 0.32, 218.82, 108.85, -18.83
6639, 0.07, -0.90, 0.63, 196.84, 214.06, -142.80
6640, -0.11, -1.01, 0.53, 182.77, 278.39, -351.19
6641, -0.47, -1.11, 0.20, 53.76, 224.00, -408.73
6642, -0.70, -1.35, 0.43, -0.98, 300.58, -313.18
6643, -0.85, -1.29, 0.53, 91.07, 252.56, -301.42
6644, -0.62, -1.02, 0.44, 211.19, 151.34, -346.29
6645, -0.39, -0.80, 0.87, 207.20, 116.69, -332.01
6646, -0.29, -0.53, 0.94, 126.21, 79.10, -258.58
6647, -0.34, -0.05, -0.78, 140.07, 2.38, -126.35
6648, 0.20, -0.67, 0.33, -2.45, -65.03, -206.57
6649, -0.02, -0.74, 1.25, 104.02, 1.12, -148.33
6650, -0.23, -0.54, 0.43, 179.90, -20.93, 12.88
6651, -0.69, -0.28, 1.28, 144.69, -54.18, 170.87
6652, -0.62, 0.62, 1.05, 84.00, -165.06, 166.11
6653, -0.20, 0.14, 1.03, -143.15, -308.98, 17.85
6654, 0.27, -0.86, 0.99, -179.13, -210.56, 35.77
6655, 0.26, -1.34, 1.10, 6.72, -141.82, 117.81
6656, 0.25, -0.85, 0.94, 100.31, -131.11, 185.15
6657, 0.45, -0.23, 0.95, 77.28, -41.09, 167.93
6658, 0.51, -0.44, 1.03, -3.08, 14.42, 120.61
6659, -0.24, -0.97, 1.08, 72.10, -11.90, 163.73
6660, -0.35, -0.61, 1.07, 128.38, -70.21, 276.15
6661, -0.18, -0.44, 0.79, 58.66, -102.69, 355.60
6662, 0.28, -0.44, 0.58, 38.64, -184.59, 313.74
6663, 0.30, -0.01, 0.83, 61.67, -227.50, 220.29
6664, 0.30, -0.56, 0.76, 91.21, -219.59, 143.85
6665, 0.41, -0.56, 0.57, 14.91, -137.55, 81.90
6666, 0.73, -0.66, 0.46, -89.67, -69.79, 3.99
6667, 0.82, -0.68, 0.65, -63.07, 50.54, -24.29
6668, 0.75, -0.46, 0.71, -17.92, 107.03, -27.58
6669, 0.57, -0.38, 1.00, 39.90, 120.68, -5.95
6670, 0.40, -0.20, 1.07, 0.07, 141.82, -18.13
6671, 0.56, -0.09, 0.92, -34.30, 170.66, -44.66
6672, 0.39, -0.52, 1.07, -18.76, 153.65, -59.15
6673, 0.09, -0.60, 1.02, 28.14, 179.69, -104.16
6674, -0.27, -0.43, 0.93, 54.88, 160.58, -158.97
6675, -0.30, -0.30, 0.83, 90.51, 86.52, -153.23
6676, -0.28, -0.24, 0.84, 83.37, 61.04, -128.38
6677, -0.26, -0.14, 0.78, 42.14, 36.05, -113.12
6678, -0.33, -0.14, 0.96, 22.12, 78.40, -67.20
6679, -0.21, -0.25, 0.97, -33.32, 127.12, 36.47
6680, 0.04, -0.47, 1.00, -40.25, 85.19, 33.25
6681, -0.16, -0.43, 0.98, -2.38, -10.43, -22.75
6682, -0.10, -0.10, 1.19, 11.55, -7.77, -17.92
6683, -0.13, -0.04, 1.05, -35.49, 6.30, -63.49
6684, 0.17, -0.49, 0.97, -50.96, 55.02, -94.99
6685, 0.08, -0.71, 1.03, 44.38, 88.06, -102.41
6686, -0.18, -0.44, 0.98, 88.20, 59.15, -98.56
6687, -0.19, -0.29, 0.92, 90.79, 25.13, -74.76
6688, -0.16, -0.18, 0.93, 70.77, 4.97, -62.44
6689, -0.14, -0.08, 0.96, 62.16, -10.08, -53.27
6690, -0.10, -0.06, 1.04, 43.19, -12.74, -48.30
6691, -0.07, -0.12, 1.07, 41.09, -8.89, -65.03
6692, -0.09, -0.17, 1.06, 50.96, -12.11, -82.67
6693, -0.08, -0.16, 1.02, 59.57, -25.97, -82.88
6694, -0.04, -0.10, 0.95, 51.03, -29.05, -69.86
6695, 0.01, -0.10, 0.91, 20.37, -15.05, -44.80
6696, 0.01, -0.09, 0.93, 5.81, -16.45, -25.90
6697, -0.01, -0.08, 0.96, 5.67, -14.42, -18.69
6698, -0.01, -0.04, 1.00, 3.01, -12.53, -16.24
6699, 0.00, -0.05, 1.01, -2.17, -11.20, -17.57
6700, 0.02, -0.11, 1.00, -6.30, -4.13, -13.16
6701, 0.00, -0.10, 1.04, -3.92, -0.28, -9.03
6702, -0.01, -0.10, 1.04, -2.80, -2.17, -6.79
6703, -0.00, -0.10, 1.04, -4.76, -3.92, -7.21
6704, -0.01, -0.13, 1.04, -4.34, -4.62, -6.86
6705, 0.06, 0.31, 1.42, 28.28, -31.22, 71.19
6706, 0.25, 0.11, 0.36, 58.66, 52.43, 44.66
6707, -0.34, -0.26, 1.12, 4.76, -57.54, -124.53
6708, 0.29, 0.05, 0.64, -12.53, -52.15, 6.93
6709, 0.57, -0.25, 1.15, -22.61, 48.44, 33.67
6710, 0.39, 0.07, 0.92, -39.69, 106.82, -21.63
6711, -0.07, -0.14, 1.07, -33.95, 119.91, -58.24
6712, -0.22, -0.43, 1.12, 2.87, 89.25, -11.97
6713, 0.15, -0.52, 0.71, -34.16, 87.01, 22.40
6714, -0.29, -0.26, 1.33, -27.16, 156.52, -38.15
6715, -0.56, 0.12, 1.32, 43.19, 109.69, 28.91
6716, -0.56, -0.11, 0.90, -8.68, 6.86, -16.66
6717, -0.43, -0.09, 0.76, -100.52, 40.81, 19.11
6718, -0.64, -0.07, 0.77, -118.23, 9.59, 58.03
6719, -0.77, -0.06, 0.90, -110.74, -61.81, 82.18
6720, -0.53, -0.11, 0.94, -101.15, -115.15, 66.99
6721, -0.29, -0.34, 0.94, -95.34, -98.63, 56.21
6722, -0.09, -0.46, 1.01, -60.34, -56.07, 44.94
6723, -0.03, -0.51, 0.97, -29.54, -28.49, 15.96
6724, -0.14, -0.48, 0.99, 3.08, -9.24, -2.03
6725, -0.26, -0.39, 1.24, 26.18, -31.99, 5.25
6726, -0.07, -0.19, 0.81, -9.38, 18.48, -16.03
6727, -0.11, -0.50, 0.87, -1.96, 30.45, -32.83
6728, -0.14, -0.48, 0.80, 19.81, 39.20, -27.65
6729, -0.31, -0.38, 0.88, 42.35, 33.60, -5.95
6730, -0.41, -0.28, 1.04, 19.88, 14.35, 2.59
6731, -0.28, -0.13, 0.95, 3.99, 0.98, -10.15
6732, -0.16, -0.36, 0.88, -29.89, 26.95, -37.59
6733, -0.23, -0.41, 0.88, -9.03, 20.58, -23.24
6734, -0.24, -0.39, 0.90, 27.51, 5.11, -3.22
6735, -0.47, -0.26, 0.93, 2.73, -14.07, 42.63
6736, -0.39, -0.18, 1.03, -11.20, -36.40, 39.76
6737, -0.24, -0.19, 0.98, -15.89, -31.15, 5.39
6738, -0.13, -0.44, 0.92, 0.14, 2.87, -35.56
6739, -0.26, -0.48, 0.85, 43.61, 29.75, -60.83
6740, -0.30, -0.25, 0.85, 59.01, 24.36, -45.08
6741, -0.39, -0.37, 0.87, 47.11, 21.98, -63.42
6742, -0.38, -0.32, 0.87, 47.32, 18.69, -61.32
6743, -0.39, -0.22, 0.87, 51.66, 10.71, -41.51
6744, -0.38, -0.18, 0.87, 37.38, -7.70, -15.89
6745, -0.31, -0.16, 1.06, 49.00, -39.55, 14.56
6746, -0.18, -0.11, 1.03, 7.49, -46.13, 9.94
6747, -0.15, -0.10, 1.12, -20.09, -52.71, 17.43
6748, -0.10, -0.11, 1.13, -29.33, -50.47, 24.78
6749, -0.03, -0.20, 1.09, -29.61, -46.83, 18.48
6750, 0.03, -0.33, 1.04, -22.12, -32.41, -2.24
6751, 0.01, -0.34, 0.93, -5.39, -9.24, -10.22
6752, -0.10, -0.26, 0.91, 3.15, 0.63, 2.52
6753, -0.13, -0.27, 0.92, -2.94, -7.56, 11.90
6754, -0.15, -0.23, 0.96, 9.80, -14.14, 23.59
6755, -0.15, -0.19, 0.97, 4.13, -14.70, 29.47
6756, -0.15, -0.20, 1.00, -5.04, -20.44, 28.63
6757, -0.16, -0.22, 1.02, -4.20, -23.66, 30.87
6758, -0.16, -0.20, 1.01, -13.72, -29.47, 31.43
6759, -0.14, -0.18, 1.02, -24.36, -28.28, 29.05
6760, -0.09, -0.21, 1.00, -19.32, -25.97, 24.71
6761, -0.07, -0.37, 0.96, 2.38, -26.11, 6.16
6762, -0.08, -0.40, 0.97, 29.47, -22.68, -0.56
6763, -0.04, -0.35, 0.94, 29.96, -14.91, -2.73
6764, -0.05, -0.24, 0.98, 20.93, -10.15, -1.33
6765, -0.03, -0.23, 0.99, 15.89, -5.18, 0.14
6766, -0.03, -0.21, 1.02, 14.70, 0.98, 1.33
6767, -0.08, -0.20, 0.99, 6.93, 2.66, -2.94
6768, -0.12, -0.19, 1.01, -4.90, -8.68, -3.43
6769, -0.05, -0.26, 0.95, 4.76, -8.05, -8.68
6770, -0.03, -0.30, 0.98, 0.21, -3.71, -16.66
6771, -0.02, -0.29, 0.98, 17.29, 5.18, -12.25
6772, -0.05, -0.22, 1.01, 18.69, 6.23, -15.40
6773, -0.06, -0.20, 1.02, 10.29, 2.94, -21.56
6774, -0.06, -0.23, 1.03, 5.04, -2.73, -24.99
6775, 0.01, -0.14, 1.07, 6.23, 0.84, -26.81
6776, -0.08, -0.14, 1.10, -14.91, -1.05, -48.93
6777, -0.12, -0.22, 1.06, -14.42, -16.59, -71.05
6778, -0.08, -0.24, 1.00, -4.55, -31.57, -86.31
6779, -0.01, -0.32, 1.00, 3.85, -27.44, -88.27
6780, 0.02, -0.31, 0.97, 21.42, -19.60, -74.76
6781, 0.01, -0.24, 0.95, 33.74, -19.67, -58.45
6782, 0.05, -0.18, 0.96, 31.22, -12.32, -43.47
6783, 0.04, -0.15, 0.95, 22.26, -1.05, -34.44
6784, 0.02, -0.12, 0.96, 13.51, 1.19, -26.04
6785, 0.02, -0.13, 0.96, 6.51, 2.24, -20.72
6786, 0.04, -0.13, 0.97, 1.82, 2.80, -13.65
6787, 0.04, -0.14, 1.00, 2.45, 4.97, -5.95
6788, 0.04, -0.14, 1.03, 3.64, 3.36, -4.97
6789, 0.03, -0.15, 1.04, 2.87, -0.70, -6.16
6790, 0.02, -0.14, 1.04, 3.36, -5.18, -4.34
6791, 0.03, -0.14, 1.02, 1.26, -5.32, -4.27
6792, 0.04, -0.14, 1.00, 1.26, -4.27, -3.08
6793, 0.03, -0.14, 1.00, 0.14, -3.50, -2.80
6794, 0.03, -0.15, 1.01, -2.31, -3.85, -2.10
6795, 0.01, -0.14, 1.00, -1.75, -4.97, -2.24
6796, 0.04, -0.19, 1.01, -4.06, -5.81, -7.00
6797, -0.01, -0.17, 1.03, 4.69, -7.21, -9.52
6798, 0.00, -0.17, 1.03, 6.30, -13.23, -10.01
6799, 0.06, -0.18, 1.03, 5.53, -14.00, -4.27
6800, 0.10, -0.16, 1.00, 3.78, -6.79, 1.96
6801, 0.13, -0.16, 1.02, 1.82, -2.94, 6.79
6802, 0.12, -0.10, 1.00, -3.85, 5.81, 22.68
6803, 0.01, -0.09, 1.00, -7.07, -1.33, 26.46
6804, -0.01, -0.09, 0.98, -11.83, -8.40, 17.29
6805, 0.04, -0.11, 1.02, -5.74, -5.67, 6.65
6806, 0.06, -0.20, 0.98, 3.43, 6.58, -15.75
6807, 0.09, -0.31, 0.99, 3.29, 12.88, -29.05
6808, 0.12, -0.25, 1.02, 4.83, 13.16, -11.62
6809, 0.09, -0.14, 1.02, 8.61, 15.75, 11.20
6810, 0.03, -0.10, 1.02, 3.85, 19.11, 26.11
6811, -0.02, -0.07, 0.99, 0.21, 22.05, 27.16
6812, -0.03, -0.11, 0.96, -8.54, 15.47, 16.03
6813, -0.02, -0.17, 0.97, -16.38, 6.72, 7.63
6814, 0.01, -0.16, 0.99, -21.28, 6.93, 14.77
6815, -0.01, -0.19, 1.03, -12.74, 6.51, 29.75
6816, -0.04, -0.15, 1.04, -8.61, -0.28, 35.70
6817, -0.04, -0.14, 1.05, -14.98, -5.95, 27.23
6818, -0.04, -0.20, 1.04, -11.48, -7.07, 14.98
6819, -0.01, -0.24, 1.03, -4.90, -6.58, 7.77
6820, 0.00, -0.22, 1.02, -3.71, -0.63, 5.04
6821, -0.00, -0.23, 1.00, 0.84, 1.96, 1.82
6822, 0.00, -0.23, 1.00, 0.98, 0.98, 2.10
6823, -0.02, -0.19, 1.02, 5.46, 4.13, 7.07
6824, -0.03, -0.21, 1.04, 8.47, -3.36, 1.33
6825, 0.00, -0.19, 1.02, 3.92, -4.34, -1.12
6826, 0.01, -0.20, 1.00, 7.91, 4.34, -0.98
6827, -0.00, -0.18, 1.00, 11.27, 9.80, 3.22
6828, -0.03, -0.20, 1.00, 9.66, 10.22, 7.49
6829, -0.04, -0.18, 1.00, 3.22, 8.26, 14.07
6830, -0.06, -0.13, 1.00, -8.96, 5.81, 22.75
6831, -0.05, -0.12, 1.01, -14.63, 0.35, 28.35
6832, -0.04, -0.16, 1.00, -22.33, -5.25, 28.42
6833, -0.06, -0.18, 1.00, -17.78, -2.52, 32.69
6834, -0.03, -0.19, 1.02, -17.85, -8.05, 26.88
6835, -0.01, -0.23, 1.00, -21.28, -8.75, 21.70
6836, -0.02, -0.24, 0.98, -13.65, -3.99, 21.63
6837, -0.06, -0.22, 0.98, -14.56, -5.46, 26.18
6838, -0.07, -0.19, 1.01, -17.22, -7.98, 29.47
6839, -0.04, -0.22, 1.01, -18.62, -12.53, 25.62
6840, -0.02, -0.28, 1.02, -12.11, -10.64, 17.57
6841, -0.03, -0.28, 1.00, -6.72, -2.80, 15.33
6842, -0.05, -0.28, 1.01, -2.59, -2.31, 16.80
6843, -0.04, -0.28, 1.00, 3.92, -5.04, 20.65
6844, -0.07, -0.28, 0.98, 0.91, -9.17, 22.61
6845, -0.09, -0.22, 0.99, -7.84, -13.23, 27.86
6846, -0.07, -0.20, 0.99, -19.53, -21.07, 30.94
6847, -0.06, -0.20, 1.03, -21.14, -27.51, 33.60
6848, 0.03, -0.34, 1.08, -30.31, -32.97, 30.52
6849, 0.04, -0.47, 0.96, -10.57, -33.88, 39.48
6850, -0.00, -0.46, 0.97, -3.92, -31.92, 47.74
6851, -0.12, -0.25, 0.98, -5.95, -49.98, 67.97
6852, -0.13, -0.13, 0.95, -14.00, -76.02, 72.38
6853, -0.09, -0.14, 1.02, -30.59, -83.23, 61.67
6854, 0.14, -0.43, 0.93, -74.13, -113.33, 23.73
6855, 0.25, -0.72, 1.07, 15.33, -118.16, 56.70
6856, -0.04, -0.50, 1.01, 87.08, -133.91, 71.96
6857, 0.06, -0.15, 0.93, 68.60, -140.49, 91.98
6858, 0.22, -0.15, 0.83, 45.92, -144.83, 95.20
6859, 0.37, -0.32, 0.82, 25.27, -134.19, 82.95
6860, 0.43, -0.31, 0.80, 42.35, -110.81, 69.79
6861, 0.43, -0.26, 0.82, 41.30, -92.96, 62.51
6862, 0.49, -0.27, 0.80, 43.96, -78.12, 55.72
6863, 0.52, -0.29, 0.86, 46.41, -63.00, 53.48
6864, 0.48, -0.25, 0.90, 47.46, -44.17, 44.52
6865, 0.45, -0.20, 0.90, 29.26, -33.67, 29.19
6866, 0.47, -0.19, 0.87, 10.43, -25.97, 18.41
6867, 0.48, -0.23, 0.89, 1.47, -20.79, 11.48
6868, 0.49, -0.25, 0.88, -3.15, -12.60, 7.42
6869, 0.49, -0.26, 0.87, -4.90, -3.64, 1.40
6870, 0.47, -0.26, 0.86, -8.54, 2.73, -2.73
6871, 0.46, -0.27, 0.86, -8.33, 6.37, -5.67
6872, 0.45, -0.29, 0.88, -4.13, 4.90, -6.16
6873, 0.44, -0.28, 0.88, -4.20, 6.44, -5.74
6874, 0.45, -0.28, 0.89, -5.11, 5.32, -7.56
6875, 0.45, -0.28, 0.89, -1.68, 3.36, -6.30
6876, 0.44, -0.27, 0.90, -3.71, 0.84, -5.39
6877, 0.44, -0.26, 0.90, -0.14, 0.42, -5.46
6878, 0.42, -0.24, 0.89, 2.38, -1.96, -3.85
6879, 0.44, -0.25, 0.88, -0.42, -0.77, -3.57
6880, 0.44, -0.25, 0.88, -0.14, 0.56, -2.66
6881, 0.45, -0.25, 0.88, 1.89, 1.05, -1.33
6882, 0.44, -0.24, 0.89, 2.94, 1.26, -1.05
6883, 0.44, -0.24, 0.89, 1.75, 1.26, -1.40
6884, 0.44, -0.23, 0.89, 0.91, -1.61, 0.07
6885, 0.43, -0.24, 0.90, 0.56, -2.45, 0.70
6886, 0.44, -0.24, 0.89, 1.12, -3.50, 0.49
6887, 0.45, -0.25, 0.89, 0.35, -3.29, 0.42
6888, 0.45, -0.25, 0.88, 0.35, -2.80, 0.63
6889, 0.44, -0.25, 0.88, 0.49, -2.66, 1.40
6890, 0.45, -0.26, 0.88, -0.14, -2.80, 1.40
6891, 0.43, -0.25, 0.88, 1.89, -3.50, 2.31
6892, 0.44, -0.25, 0.89, -0.14, -3.57, 2.03
6893, 0.45, -0.25, 0.89, -0.98, -3.64, 1.54
6894, 0.46, -0.25, 0.90, -0.07, -2.66, -0.07
6895, 0.44, -0.30, 0.85, 0.56, -2.24, 0.42
6896, 0.43, -0.14, 0.87, 7.84, 0.42, 15.26
6897, 0.34, -0.32, 1.00, -1.33, -10.50, 9.03
6898, 0.48, -0.11, 0.95, -12.11, -8.26, -14.00
6899, 0.41, -0.16, 0.79, -16.73, -18.20, -15.82
6900, 0.50, -0.32, 0.78, -14.91, -19.88, 3.64
6901, 0.52, -0.40, 0.82, 3.43, -7.00, 10.78
6902, 0.47, -0.33, 0.86, 19.46, 3.57, 6.86
6903, 0.43, -0.23, 0.89, 12.74, -2.52, 3.50
6904, 0.44, -0.23, 0.90, -0.07, -11.34, 2.38
6905, 0.50, -0.27, 0.89, -8.47, -14.49, 0.21
6906, 0.51, -0.31, 0.86, -5.95, -10.22, -2.24
6907, 0.50, -0.29, 0.85, -2.52, -6.30, -2.73
6908, 0.50, -0.29, 0.84, -0.49, -3.08, -5.18
6909, 0.49, -0.28, 0.86, 0.56, 0.70, -6.58
6910, 0.48, -0.25, 0.87, -3.92, 4.27, -8.75
6911, 0.48, -0.26, 0.86, -1.96, 1.96, -11.20
6912, 0.48, -0.28, 0.87, -3.08, 0.28, -12.53
6913, 0.49, -0.26, 0.88, -7.14, 4.69, -14.21
6914, 0.49, -0.23, 0.87, -8.96, 8.47, -18.13
6915, 0.49, -0.24, 0.86, -10.29, 9.10, -20.44
6916, 0.49, -0.25, 0.83, -9.52, 10.22, -21.14
6917, 0.49, -0.26, 0.83, -7.28, 11.55, -19.81
6918, 0.49, -0.27, 0.86, -7.91, 16.87, -19.95
6919, 0.48, -0.27, 0.86, -3.64, 18.06, -19.39
6920, 0.46, -0.26, 0.86, -2.80, 17.36, -16.59
6921, 0.45, -0.26, 0.89, -1.68, 13.93, -12.53
6922, 0.45, -0.25, 0.90, 0.21, 11.06, -11.41
6923, 0.44, -0.25, 0.89, 2.31, 10.01, -9.31
6924, 0.42, -0.24, 0.88, 0.49, 5.81, -6.09
6925, 0.42, -0.25, 0.89, -1.75, 2.45, -2.10
6926, 0.43, -0.25, 0.89, 1.05, 1.40, -1.12
6927, 0.43, -0.25, 0.90, 0.70, 0.28, 0.70
6928, 0.43, -0.24, 0.90, 2.59, -0.70, 0.77
6929, 0.46, -0.30, 0.88, 3.15, -4.83, 3.92
6930, 0.47, -0.15, 0.85, -18.48, -10.36, 27.79
6931, 0.33, -0.31, 1.11, -23.80, -48.30, 46.06
6932, 0.56, -0.04, 1.00, -37.73, 2.03, 13.79
6933, 0.50, -0.02, 0.76, -47.18, 21.42, -10.15
6934, 0.49, -0.28, 0.73, -34.65, 4.76, -9.31
6935, 0.47, -0.47, 0.78, 5.74, -3.29, 1.40
