timestamp,accX,accY,accZ,gyrX,gyrY,gyrZ
0,0.67,-0.36,0.7,-0.21,4.34,-5.88
20,0.65,-0.37,0.68,1.33,5.74,-7.42
40,0.65,-0.37,0.7,-1.68,3.57,-5.6
60,0.66,-0.35,0.69,-3.71,9.1,-6.37
80,0.66,-0.36,0.69,0.63,10.57,-5.6
100,0.67,-0.37,0.69,2.17,10.85,-5.32
120,0.64,-0.35,0.69,2.73,7.77,-2.66
140,0.61,-0.34,0.7,1.75,-1.26,0.35
160,0.62,-0.33,0.71,1.26,-5.39,1.19
180,0.64,-0.34,0.72,2.03,-6.16,1.82
200,0.65,-0.34,0.72,-0.07,-1.26,0.14
220,0.65,-0.34,0.7,-1.05,1.54,-1.12
240,0.64,-0.35,0.7,-3.43,3.71,-1.61
260,0.65,-0.35,0.71,-4.97,4.9,-1.96
280,0.65,-0.34,0.71,-6.65,5.6,-2.45
300,0.64,-0.34,0.72,-7.21,5.88,-1.89
320,0.65,-0.34,0.7,-5.95,4.76,1.12
340,0.64,-0.35,0.7,-4.13,2.38,2.8
360,0.63,-0.36,0.7,-1.47,0.42,2.59
380,0.63,-0.35,0.71,1.47,-0.84,2.24
400,0.64,-0.35,0.71,2.66,-0.56,2.52
420,0.64,-0.35,0.71,3.57,0.42,2.31
440,0.63,-0.35,0.71,2.31,-0.07,1.68
460,0.63,-0.35,0.72,0.98,-0.28,1.26
480,0.63,-0.36,0.71,0.91,-0.21,1.05
500,0.64,-0.36,0.71,0.49,0.63,1.19
520,0.63,-0.35,0.71,1.19,-0.14,0.98
540,0.63,-0.36,0.7,1.89,-1.05,0.21
560,0.63,-0.37,0.7,2.38,-3.43,1.61
580,0.63,-0.36,0.71,6.23,-5.81,5.25
600,0.61,-0.35,0.71,3.36,-7.49,8.33
620,0.61,-0.34,0.72,0.14,-9.87,8.89
640,0.63,-0.35,0.72,-1.96,-10.64,7.91
660,0.65,-0.36,0.72,-1.33,-7.98,4.97
680,0.64,-0.36,0.71,0.84,-8.12,3.99
700,0.64,-0.36,0.72,2.94,-8.26,3.22
720,0.65,-0.33,0.71,-2.8,-3.64,1.89
740,0.64,-0.34,0.69,-3.64,-2.59,-1.05
760,0.64,-0.38,0.68,-3.57,-3.78,-2.94
780,0.65,-0.38,0.68,-0.42,-3.29,-3.57
800,0.66,-0.38,0.69,-0.49,-1.82,-3.99
820,0.66,-0.38,0.69,0.98,-0.84,-3.85
840,0.65,-0.38,0.68,0.28,-0.91,-3.57
860,0.65,-0.37,0.68,-0.56,-0.98,-3.01
880,0.65,-0.37,0.69,0.0,-1.19,-1.96
900,0.65,-0.36,0.69,0.28,-0.35,-1.54
920,0.65,-0.36,0.69,0.35,-0.28,-1.54
940,0.65,-0.36,0.7,-0.07,0.14,-0.91
960,0.64,-0.35,0.7,0.07,0.07,-0.49
980,0.65,-0.35,0.7,-1.89,1.4,-1.12
1000,0.64,-0.35,0.7,-2.38,2.03,-0.56
1020,0.64,-0.35,0.7,-1.26,-0.49,-0.28
1040,0.65,-0.36,0.7,-1.05,-0.49,-0.98
1060,0.65,-0.36,0.7,-0.98,-0.84,-0.56
1080,0.64,-0.36,0.7,-0.77,-1.61,-0.35
1100,0.65,-0.36,0.7,-0.7,-0.84,-0.35
1120,0.64,-0.36,0.69,-0.35,-1.4,0.28
1140,0.64,-0.37,0.7,0.07,-1.26,0.42
1160,0.64,-0.36,0.7,0.63,-1.12,-0.14
1180,0.64,-0.36,0.7,-0.28,-1.96,-0.07
1200,0.65,-0.36,0.7,-0.56,-2.59,0.0
1220,0.65,-0.36,0.7,-0.28,-2.52,0.14
1240,0.65,-0.35,0.7,0.84,-0.98,0.35
1260,0.65,-0.36,0.7,0.21,-0.98,0.56
1280,0.64,-0.36,0.69,0.07,-0.77,0.56
1300,0.65,-0.36,0.7,0.42,-0.35,0.0
1320,0.65,-0.35,0.7,0.28,-0.49,0.0
1340,0.65,-0.36,0.7,0.21,-0.35,-0.07
1360,0.65,-0.36,0.69,0.28,-0.56,0.07
1380,0.65,-0.36,0.69,0.21,-0.42,0.0
1400,0.65,-0.36,0.7,0.77,-1.05,0.28
1420,0.65,-0.36,0.7,0.84,0.0,0.35
1440,0.65,-0.37,0.7,0.77,0.07,0.28
1460,0.64,-0.36,0.7,0.63,0.49,0.07
1480,0.65,-0.36,0.7,1.05,0.42,0.07
1500,0.65,-0.36,0.7,1.19,-0.07,-0.21
1520,0.64,-0.36,0.7,0.84,0.21,-0.49
1540,0.64,-0.36,0.7,1.33,0.21,-1.05
1560,0.64,-0.36,0.7,0.84,0.14,-0.98
1580,0.65,-0.36,0.7,0.98,0.7,-0.7
1600,0.64,-0.36,0.7,0.7,0.84,-0.49
1620,0.64,-0.36,0.7,0.91,0.07,-0.63
1640,0.65,-0.35,0.7,0.7,0.42,-0.42
1660,0.64,-0.36,0.7,0.98,0.14,0.14
1680,0.64,-0.36,0.7,0.77,-0.56,0.56
1700,0.63,-0.36,0.7,1.33,-1.61,0.77
1720,0.64,-0.36,0.7,1.4,-2.66,0.91
1740,0.64,-0.36,0.71,0.77,-2.38,0.98
1760,0.64,-0.36,0.71,1.4,-3.08,0.98
1780,0.64,-0.35,0.7,0.35,-3.01,0.77
1800,0.64,-0.36,0.7,0.63,-3.15,1.12
1820,0.64,-0.36,0.71,0.56,-2.87,0.91
1840,0.64,-0.36,0.7,0.35,-3.85,0.63
1860,0.64,-0.36,0.7,0.21,-3.5,0.77
1880,0.64,-0.36,0.7,0.63,-4.2,0.91
1900,0.65,-0.36,0.7,0.49,-3.78,0.84
1920,0.65,-0.35,0.7,0.14,-3.85,0.91
1940,0.65,-0.35,0.7,0.28,-3.85,0.77
1960,0.65,-0.36,0.7,0.07,-3.08,0.56
1980,0.65,-0.36,0.7,0.35,-2.66,0.63
2000,0.65,-0.36,0.7,0.42,-2.24,0.49
2020,0.65,-0.35,0.7,0.07,-2.45,0.35
2040,0.65,-0.35,0.7,-0.21,-1.75,0.7
2060,0.65,-0.36,0.69,0.49,-1.82,0.49
2080,0.65,-0.36,0.69,0.0,-2.03,-0.07
2100,0.65,-0.36,0.7,0.21,-2.1,0.21
2120,0.65,-0.36,0.7,0.21,-1.82,0.35
2140,0.65,-0.36,0.7,0.14,-2.31,0.28
2160,0.65,-0.36,0.69,0.07,-1.54,0.0
2180,0.65,-0.36,0.69,0.21,-1.61,0.21
2200,0.65,-0.36,0.7,0.28,-1.96,0.21
2220,0.65,-0.36,0.69,-0.28,-1.82,-0.14
2240,0.65,-0.36,0.7,0.28,-2.03,0.0
2260,0.65,-0.36,0.7,-0.07,-1.68,0.14
2280,0.65,-0.36,0.69,-0.07,-1.89,0.14
2300,0.65,-0.36,0.69,0.14,-1.61,0.0
2320,0.65,-0.35,0.71,0.7,-0.77,-0.28
2340,0.66,-0.35,0.69,0.14,0.7,0.0
2360,0.65,-0.36,0.69,-0.77,0.42,0.21
2380,0.65,-0.36,0.69,1.19,0.42,-0.07
2400,0.65,-0.36,0.69,0.98,0.21,-0.14
2420,0.65,-0.36,0.7,0.56,-0.35,0.28
2440,0.65,-0.36,0.7,0.91,-0.14,0.42
2460,0.65,-0.36,0.69,0.7,0.14,0.07
2480,0.65,-0.36,0.7,0.28,0.49,0.07
2500,0.65,-0.36,0.7,0.7,0.28,0.21
2520,0.64,-0.36,0.7,0.42,0.07,0.0
2540,0.65,-0.35,0.7,0.49,0.14,0.0
2560,0.64,-0.36,0.7,0.56,-0.35,0.21
2580,0.65,-0.36,0.7,0.84,0.0,0.42
2600,0.65,-0.36,0.7,0.49,0.07,0.28
2620,0.65,-0.36,0.7,1.05,-0.21,0.35
2640,0.65,-0.36,0.7,0.7,-0.63,0.28
2660,0.65,-0.35,0.7,0.28,-0.63,0.63
2680,0.65,-0.36,0.7,0.42,-0.63,0.49
2700,0.64,-0.35,0.7,0.42,0.21,0.07
2720,0.64,-0.35,0.7,0.84,-0.35,0.42
2740,0.65,-0.36,0.7,1.47,-0.42,0.91
2760,0.64,-0.36,0.7,1.54,-0.84,0.98
2780,0.64,-0.36,0.7,1.47,-1.54,0.77
2800,0.64,-0.36,0.7,1.26,-2.59,0.77
2820,0.65,-0.36,0.7,0.49,-3.22,0.63
2840,0.65,-0.36,0.7,-0.28,-3.92,0.7
2860,0.64,-0.36,0.7,-0.07,-4.2,0.63
2880,0.65,-0.36,0.7,0.14,-3.92,0.63
2900,0.65,-0.36,0.7,-0.63,-3.36,0.28
2920,0.65,-0.36,0.7,-0.21,-3.36,0.14
2940,0.65,-0.36,0.69,-0.28,-3.5,0.35
2960,0.65,-0.36,0.7,0.14,-3.22,0.35
2980,0.65,-0.36,0.7,-0.63,-3.22,0.91
3000,0.64,-0.36,0.7,1.12,-4.76,1.4
3020,0.65,-0.36,0.69,1.19,-5.11,-0.49
3040,0.65,-0.35,0.69,1.89,-3.71,0.07
3060,0.65,-0.36,0.69,0.77,-4.06,1.05
3080,0.66,-0.35,0.69,-0.21,-0.91,0.49
3100,0.66,-0.35,0.69,-0.77,-0.91,0.14
3120,0.66,-0.35,0.69,-0.42,0.84,-0.28
3140,0.65,-0.36,0.69,-0.98,0.63,-0.42
3160,0.65,-0.36,0.69,-0.28,0.07,-0.56
3180,0.65,-0.36,0.69,0.63,-0.98,-0.28
3200,0.65,-0.36,0.69,1.12,-1.54,0.35
3220,0.65,-0.36,0.69,1.33,-1.61,0.77
3240,0.65,-0.36,0.69,0.98,-1.4,0.77
3260,0.65,-0.36,0.69,0.28,-1.61,0.63
3280,0.66,-0.35,0.7,1.19,0.21,0.63
3300,0.66,-0.36,0.69,-0.56,0.49,0.49
3320,0.64,-0.36,0.69,-0.28,0.42,-0.07
3340,0.65,-0.35,0.69,-0.56,0.14,-0.91
3360,0.66,-0.36,0.7,-0.28,0.77,-0.91
3380,0.65,-0.36,0.69,0.07,0.07,-0.7
3400,0.65,-0.35,0.7,-0.07,0.28,-0.7
3420,0.65,-0.35,0.69,-0.07,0.07,-0.42
3440,0.66,-0.35,0.69,0.21,0.42,-0.42
3460,0.65,-0.36,0.69,0.56,0.98,-0.21
3480,0.65,-0.36,0.7,0.28,0.56,-0.07
3500,0.65,-0.36,0.7,0.28,0.84,-0.28
3520,0.65,-0.35,0.7,0.42,0.98,-0.28
3540,0.64,-0.36,0.7,0.56,0.7,-0.07
3560,0.64,-0.35,0.7,0.35,0.63,-0.07
3580,0.65,-0.36,0.7,0.28,0.35,-0.42
3600,0.65,-0.35,0.7,0.42,0.56,0.21
3620,0.64,-0.36,0.7,-0.14,0.56,0.0
3640,0.64,-0.36,0.7,0.42,0.28,-0.28
3660,0.64,-0.35,0.7,0.7,0.14,-0.21
3680,0.64,-0.36,0.7,0.84,-0.14,0.28
3700,0.64,-0.36,0.7,1.26,-0.63,0.63
3720,0.64,-0.35,0.7,1.05,-0.84,0.56
3740,0.64,-0.36,0.7,1.05,-1.19,0.63
3760,0.64,-0.36,0.7,1.19,-2.1,0.49
3780,0.64,-0.36,0.7,0.07,-2.59,0.21
3800,0.64,-0.35,0.7,0.49,-3.15,0.42
3820,0.64,-0.35,0.7,0.28,-3.22,0.49
3840,0.64,-0.36,0.7,-0.14,-3.36,0.49
3860,0.65,-0.35,0.7,0.28,-2.94,0.28
3880,0.65,-0.36,0.7,-0.28,-2.66,0.07
3900,0.65,-0.36,0.7,-0.28,-2.8,0.21
3920,0.65,-0.35,0.7,-0.63,-2.52,0.35
3940,0.65,-0.36,0.7,-0.35,-3.01,0.14
3960,0.65,-0.35,0.69,-0.28,-2.52,-0.14
3980,0.65,-0.35,0.7,0.0,-2.52,0.21
4000,0.65,-0.35,0.7,0.07,-2.52,0.35
4020,0.65,-0.35,0.7,-0.28,-1.89,0.07
4040,0.65,-0.35,0.69,0.07,-1.33,0.07
4060,0.65,-0.36,0.7,0.07,-1.54,0.14
4080,0.65,-0.36,0.7,-0.07,-1.26,0.07
4100,0.65,-0.35,0.69,0.0,-1.33,17.85
4120,0.65,-0.36,0.7,0.42,-1.82,0.07
4140,0.65,-0.35,0.7,0.28,-1.33,0.14
4160,0.65,-0.36,0.69,-0.42,-1.4,0.21
4180,0.65,-0.36,0.7,-0.07,-1.68,0.07
4200,0.65,-0.36,0.69,0.14,-1.96,0.14
4220,0.65,-0.35,0.7,0.42,-1.61,0.07
4240,0.65,-0.36,0.69,-0.14,-1.54,0.35
4260,0.65,-0.36,0.69,0.07,-1.96,0.14
4280,0.65,-0.36,0.69,0.21,-2.03,0.07
4300,0.65,-0.35,0.69,0.42,-2.31,0.35
4320,0.65,-0.36,0.7,0.42,-2.17,0.7
4340,0.65,-0.35,0.7,1.05,0.07,0.84
4360,0.66,-0.35,0.69,0.63,0.28,0.91
4380,0.65,-0.36,0.69,0.63,-0.56,0.7
4400,0.65,-0.36,0.7,0.84,-0.21,-0.07
4420,0.65,-0.35,0.69,0.7,-0.63,-0.14
4440,0.65,-0.35,0.69,0.49,-0.42,0.21
4460,0.65,-0.35,0.69,0.56,-0.63,0.42
4480,0.65,-0.36,0.69,0.42,0.07,0.14
4500,0.65,-0.36,0.7,0.91,0.28,0.35
4520,0.65,-0.35,0.7,0.42,0.42,0.07
4540,0.65,-0.35,0.7,0.07,0.28,0.14
4560,0.65,-0.36,0.7,0.49,0.42,0.35
4580,0.65,-0.36,0.7,1.05,0.63,-0.14
4600,0.65,-0.35,0.7,0.56,0.07,-0.21
4620,0.65,-0.35,0.7,0.77,-0.07,0.28
4640,0.65,-0.36,0.7,0.56,-0.07,0.21
4660,0.65,-0.35,0.7,0.35,0.07,-0.14
4680,0.65,-0.35,0.7,0.42,0.35,0.28
4700,0.64,-0.35,0.7,0.49,0.07,0.21
4720,0.64,-0.35,0.7,0.42,-0.21,0.0
4740,0.64,-0.35,0.7,0.84,-0.56,0.21
4760,0.64,-0.35,0.7,0.91,-0.21,0.42
4780,0.64,-0.35,0.7,1.26,-0.63,0.42
4800,0.64,-0.35,0.7,1.26,-0.91,0.84
4820,0.64,-0.36,0.7,1.12,-1.05,0.7
4840,0.64,-0.35,0.7,1.26,-1.96,0.49
4860,0.64,-0.35,0.7,0.14,-1.61,0.35
4880,0.65,-0.35,0.71,-0.42,-1.19,-0.28
4900,0.64,-0.35,0.7,-0.21,-1.19,-1.75
4920,0.64,-0.36,0.7,-0.07,-1.75,-2.52
4940,0.65,-0.36,0.7,-0.56,-0.77,-2.8
4960,0.65,-0.36,0.7,-1.05,-0.84,-1.47
4980,0.64,-0.35,0.7,-0.77,-1.26,-1.61
5000,0.64,-0.35,0.7,0.07,-2.03,-1.54
5020,0.65,-0.35,0.7,1.05,-2.24,-0.77
5040,0.65,-0.35,0.7,0.91,-2.52,0.14
5060,0.64,-0.34,0.7,0.77,-3.22,0.77
5080,0.64,-0.34,0.71,0.91,-3.5,1.19
5100,0.64,-0.35,0.7,1.12,-3.78,0.84
5120,0.65,-0.35,0.7,1.33,-3.5,1.47
5140,0.65,-0.34,0.7,1.4,-3.71,1.61
5160,0.65,-0.34,0.7,1.4,-3.64,1.89
5180,0.66,-0.36,0.7,0.49,-3.08,1.61
5200,0.65,-0.35,0.7,1.19,-3.71,0.84
5220,0.65,-0.35,0.69,1.05,-3.71,1.19
5240,0.65,-0.35,0.69,0.84,-3.57,1.26
5260,0.66,-0.35,0.7,1.33,-2.73,1.47
5280,0.66,-0.36,0.69,0.91,-1.96,1.47
5300,0.65,-0.35,0.69,0.84,-2.45,1.4
5320,0.66,-0.35,0.7,0.56,-1.82,0.77
5340,0.66,-0.35,0.69,0.07,-1.89,-0.35
5360,0.66,-0.35,0.69,-0.07,-1.75,-0.77
5380,0.66,-0.35,0.69,-0.28,-1.19,-0.63
5400,0.65,-0.35,0.69,-0.35,-0.84,0.0
5420,0.65,-0.35,0.7,-0.07,-1.05,0.28
5440,0.66,-0.35,0.7,-0.21,-0.63,0.07
5460,0.66,-0.34,0.7,1.75,1.33,0.84
5480,0.66,-0.35,0.69,0.21,0.28,1.05
5500,0.65,-0.35,0.69,-0.07,0.42,0.56
5520,0.65,-0.35,0.7,-0.28,0.42,-0.42
5540,0.65,-0.35,0.7,-0.21,0.07,-0.49
5560,0.65,-0.35,0.7,-0.14,0.49,-0.63
5580,0.65,-0.35,0.69,0.0,0.42,-0.77
5600,0.65,-0.35,0.69,-0.28,0.49,-0.35
5620,0.65,-0.35,0.7,0.14,0.77,-0.28
5640,0.65,-0.36,0.7,0.35,0.35,-0.42
5660,0.65,-0.35,0.7,0.14,0.84,-0.56
5680,0.65,-0.35,0.7,0.14,0.49,-0.42
5700,0.65,-0.35,0.7,0.7,0.35,-0.35
5720,0.65,-0.35,0.7,0.98,0.0,-0.14
5740,0.64,-0.35,0.7,0.98,-0.21,0.49
5760,0.65,-0.35,0.7,0.91,-1.19,0.84
5780,0.65,-0.35,0.71,1.05,-0.63,0.91
5800,0.64,-0.35,0.7,0.91,-0.91,0.7
5820,0.65,-0.35,0.7,1.05,-0.63,0.35
5840,0.65,-0.35,0.7,0.77,-0.77,0.63
5860,0.65,-0.35,0.7,0.7,-1.12,0.35
5880,0.65,-0.35,0.7,0.98,-0.98,0.07
5900,0.65,-0.35,0.7,0.84,-0.77,0.07
5920,0.65,-0.35,0.7,1.82,-0.77,0.35
5940,0.65,-0.35,0.7,1.47,-0.91,0.7
5960,0.64,-0.35,0.7,1.26,-1.33,0.84
5980,0.64,-0.35,0.7,2.38,-2.31,0.98
6000,0.65,-0.35,0.7,1.75,-2.45,1.05
6020,0.65,-0.35,0.71,1.12,-2.94,0.91
6040,0.64,-0.35,0.7,0.56,-2.38,0.63
6060,0.65,-0.35,0.7,0.21,-2.38,0.56
6080,0.65,-0.35,0.7,-0.07,-2.38,0.21
6100,0.65,-0.35,0.7,-0.42,-2.1,0.07
6120,0.65,-0.35,0.7,-0.77,-2.1,-0.21
6140,0.65,-0.35,0.7,-0.42,-2.59,0.07
6160,0.65,-0.35,0.7,0.0,-2.8,0.21
6180,0.65,-0.35,0.7,0.0,-2.87,0.21
6200,0.65,-0.35,0.7,0.21,-2.59,0.35
6220,0.65,-0.35,0.7,0.35,-2.38,0.28
6240,0.65,-0.35,0.7,0.14,-2.73,0.49
6260,0.65,-0.35,0.7,-0.14,-2.31,0.42
6280,0.65,-0.35,0.7,-0.07,-2.17,0.14
6300,0.65,-0.35,0.7,0.07,-2.24,0.42
6320,0.65,-0.35,0.69,0.21,-3.15,1.61
6340,0.65,-0.35,0.7,1.12,-3.99,2.8
6360,0.65,-0.34,0.7,0.42,-4.41,1.96
6380,0.65,-0.35,0.7,0.35,-3.78,0.84
6400,0.65,-0.35,0.7,0.28,-3.64,1.68
6420,0.66,-0.35,0.7,-1.12,-0.98,0.0
6440,0.65,-0.35,0.69,-0.49,-1.68,0.07
6460,0.66,-0.36,0.69,-0.35,-2.38,0.21
6480,0.66,-0.35,0.69,-0.84,-0.84,0.0
6500,0.65,-0.35,0.69,0.0,-1.89,0.63
6520,0.66,-0.36,0.69,0.42,-1.96,0.63
6540,0.66,-0.35,0.69,0.0,-1.05,0.35
6560,0.66,-0.36,0.69,-0.35,-1.54,0.21
6580,0.66,-0.35,0.69,-0.35,0.56,0.28
6600,0.66,-0.35,0.69,-0.84,0.28,0.21
6620,0.66,-0.35,0.69,-0.91,1.19,0.14
6640,0.65,-0.35,0.69,-0.35,1.4,-0.7
6660,0.65,-0.35,0.69,-0.42,1.05,-0.98
6680,0.65,-0.35,0.69,-0.14,0.7,-0.77
6700,0.65,-0.35,0.7,0.07,0.56,0.0
6720,0.66,-0.36,0.7,0.0,0.77,0.07
6740,0.65,-0.35,0.7,-0.28,1.05,-0.28
6760,0.65,-0.35,0.7,-0.14,0.77,-0.28
6780,0.65,-0.36,0.7,0.35,0.42,0.21
6800,0.65,-0.35,0.7,0.56,0.35,0.14
6820,0.65,-0.35,0.7,0.56,-0.21,0.0
6840,0.65,-0.35,0.7,0.21,-0.07,0.42
6860,0.65,-0.35,0.7,0.91,0.28,0.49
6880,0.65,-0.35,0.7,0.35,-0.28,0.07
6900,0.65,-0.35,0.7,0.49,-0.49,0.14
6920,0.65,-0.35,0.7,0.56,-0.35,0.56
6940,0.64,-0.35,0.7,0.56,-0.49,0.35
6960,0.65,-0.35,0.7,0.49,-0.42,0.35
6980,0.65,-0.35,0.7,0.21,-0.21,0.35
7000,0.64,-0.35,0.7,0.56,-1.05,0.35
7020,0.65,-0.35,0.7,0.63,-0.49,0.56
7040,0.64,-0.35,0.7,1.12,-0.56,0.84
7060,0.64,-0.35,0.7,1.33,-1.12,0.84
7080,0.64,-0.36,0.7,1.75,-1.61,0.84
7100,0.64,-0.36,0.7,1.96,-2.17,0.91
7120,0.64,-0.35,0.7,1.26,-2.59,0.7
7140,0.64,-0.35,0.7,0.77,-2.31,0.7
7160,0.65,-0.35,0.7,0.28,-2.24,0.77
7180,0.65,-0.35,0.7,-0.14,-2.45,0.28
7200,0.65,-0.35,0.7,-0.35,-2.59,0.21
7220,0.65,-0.35,0.7,-0.35,-2.73,0.14
7240,0.65,-0.35,0.7,-0.42,-2.52,0.07
7260,0.65,-0.36,0.69,-0.21,-2.24,0.14
7280,0.65,-0.35,0.7,-0.14,-2.52,0.42
7300,0.65,-0.35,0.69,-0.07,-2.94,0.14
7320,0.65,-0.35,0.7,0.07,-2.38,0.35
7340,0.65,-0.35,0.7,-0.35,-2.31,0.35
7360,0.65,-0.35,0.69,-0.07,-2.24,0.07
7380,0.65,-0.35,0.69,-0.14,-2.1,0.14
7400,0.65,-0.35,0.7,0.0,-2.17,0.42
7420,0.65,-0.35,0.7,0.0,-1.75,-0.14
7440,0.65,-0.35,0.7,-0.35,-1.19,-0.21
7460,0.65,-0.35,0.69,-0.07,-1.89,0.28
7480,0.65,-0.35,0.7,-0.35,-1.54,0.0
7500,0.65,-0.36,0.69,-0.35,-1.61,-0.42
7520,0.65,-0.35,0.69,0.0,-1.61,-0.07
7540,0.65,-0.35,0.69,-0.07,-1.54,0.14
7560,0.65,-0.35,0.7,0.21,-1.68,0.14
7580,0.65,-0.35,0.69,0.07,-1.33,0.0
7600,0.66,-0.36,0.69,0.0,-1.33,0.21
7620,0.65,-0.35,0.69,0.0,-1.82,0.21
7640,0.65,-0.35,0.7,0.0,-1.54,0.21
7660,0.65,-0.36,0.69,0.07,-1.68,0.0
7680,0.65,-0.35,0.69,0.28,-1.82,-0.07
7700,0.66,-0.35,0.69,0.28,-1.68,0.14
7720,0.66,-0.35,0.69,0.14,-1.75,0.35
7740,0.66,-0.35,0.69,0.28,-1.54,0.21
7760,0.65,-0.35,0.69,-0.14,-1.26,0.35
7780,0.65,-0.35,0.69,0.28,-1.75,0.35
7800,0.65,-0.35,0.69,0.28,-1.54,0.28
7820,0.65,-0.35,0.7,0.28,-1.19,0.14
7840,0.66,-0.35,0.7,0.7,-0.07,0.42
7860,0.66,-0.35,0.69,0.07,0.07,0.21
7880,0.65,-0.35,0.69,0.14,0.28,0.21
7900,0.65,-0.36,0.7,0.63,-0.28,-0.14
7920,0.65,-0.35,0.7,0.42,-0.07,0.0
7940,0.65,-0.35,0.7,0.56,-0.28,-0.07
7960,0.65,-0.35,0.69,0.42,0.14,0.49
7980,0.65,-0.35,0.69,0.49,-0.07,0.21
8000,0.65,-0.35,0.69,0.56,0.14,0.0
8020,0.65,-0.36,0.69,1.05,-0.14,0.21
8040,0.65,-0.36,0.7,0.63,0.28,0.42
8060,0.65,-0.35,0.7,0.28,-0.07,0.0
8080,0.65,-0.35,0.7,0.49,0.42,0.14
8100,0.65,-0.35,0.7,0.42,-0.07,0.07
8120,0.65,-0.35,0.7,0.49,-0.07,-0.07
8140,0.65,-0.35,0.7,0.35,-0.07,-0.07
8160,0.65,-0.35,0.7,0.7,-0.56,0.14
8180,0.65,-0.35,0.7,0.35,-0.56,0.14
8200,0.65,-0.35,0.7,0.49,-0.42,0.14
8220,0.65,-0.35,0.7,0.63,-0.42,0.28
8240,0.65,-0.35,0.7,0.7,-0.7,0.28
8260,0.65,-0.35,0.7,0.77,-0.42,0.28
8280,0.65,-0.35,0.7,0.28,-0.91,0.49
8300,0.65,-0.35,0.7,0.56,-0.14,0.35
8320,0.64,-0.35,0.7,1.12,-0.63,0.49
8340,0.65,-0.35,0.7,1.33,-1.12,0.84
8360,0.64,-0.35,0.7,1.47,-1.12,0.84
8380,0.64,-0.35,0.7,1.4,-1.61,0.63
8400,0.65,-0.35,0.7,0.98,-1.68,0.63
8420,0.65,-0.35,0.7,0.98,-2.1,0.56
8440,0.65,-0.35,0.7,0.35,-2.03,0.56
8460,0.65,-0.35,0.7,0.21,-2.24,0.49
8480,0.65,-0.35,0.7,0.07,-2.31,0.49
8500,0.65,-0.36,0.7,0.07,-2.45,0.42
8520,0.65,-0.35,0.7,-0.07,-2.17,0.14
8540,0.65,-0.35,0.7,-0.14,-2.1,-0.07
8560,0.65,-0.35,0.7,-0.14,-2.66,0.0
8580,0.65,-0.35,0.7,-0.21,-2.1,0.28
8600,0.65,-0.35,0.7,-0.14,-2.38,0.49
8620,0.65,-0.35,0.69,0.0,-2.03,0.0
8640,0.65,-0.35,0.69,0.0,-2.59,0.14
8660,0.65,-0.35,0.7,-0.28,-2.1,0.42
8680,0.65,-0.35,0.7,0.35,-2.1,0.56
8700,0.65,-0.35,0.7,-0.07,-1.82,0.14
8720,0.65,-0.35,0.7,-0.14,-1.47,0.14
8740,0.65,-0.35,0.7,-0.07,-1.68,0.0
8760,0.65,-0.35,0.7,-0.21,-1.61,-0.14
8780,0.66,-0.35,0.7,-0.14,-1.47,0.0
8800,0.65,-0.35,0.69,0.21,-1.96,0.35
8820,0.65,-0.35,0.7,-0.14,-1.61,0.0
8840,0.65,-0.35,0.7,-0.21,-1.47,-0.07
8860,0.65,-0.35,0.69,0.21,-1.61,0.07
8880,0.65,-0.35,0.7,-0.21,-1.96,-0.21
8900,0.66,-0.35,0.69,-0.21,-1.4,0.21
8920,0.65,-0.36,0.69,0.28,-1.68,0.14
8940,0.65,-0.35,0.69,-0.21,-1.26,-0.21
8960,0.65,-0.35,0.69,0.07,-1.4,0.28
8980,0.65,-0.35,0.69,0.14,-1.61,0.21
9000,0.65,-0.35,0.69,0.42,-1.82,0.35
9020,0.66,-0.35,0.69,0.42,-1.47,0.14
9040,0.65,-0.35,0.69,0.35,-1.4,0.49
9060,0.65,-0.35,0.69,0.14,-1.4,0.28
9080,0.66,-0.35,0.69,-0.07,-1.19,-0.14
9100,0.65,-0.35,0.69,0.21,-1.47,0.07
9120,0.65,-0.35,0.7,0.56,-0.7,0.35
9140,0.66,-0.35,0.7,0.49,0.07,0.35
9160,0.65,-0.35,0.69,0.21,0.07,0.56
9180,0.65,-0.35,0.69,0.42,-0.14,0.21
9200,0.65,-0.35,0.69,0.63,-0.42,-0.07
9220,0.66,-0.35,0.7,0.56,0.07,0.14
9240,0.65,-0.36,0.69,0.56,-0.28,0.14
9260,0.65,-0.35,0.69,0.42,-0.7,-0.14
9280,0.65,-0.35,0.7,0.42,-0.77,0.07
9300,0.66,-0.35,0.7,0.91,0.07,0.35
9320,0.65,-0.35,0.69,0.42,-0.14,0.0
9340,0.65,-0.35,0.7,0.35,0.21,0.07
9360,0.65,-0.35,0.7,0.28,0.14,0.28
9380,0.65,-0.35,0.7,0.63,0.14,0.21
9400,0.65,-0.35,0.7,0.56,0.07,0.0
9420,0.65,-0.35,0.69,0.35,0.14,0.21
9440,0.65,-0.35,0.7,0.56,-0.56,0.42
9460,0.65,-0.35,0.7,0.35,0.0,0.07
9480,0.65,-0.35,0.7,0.42,0.0,0.07
9500,0.65,-0.35,0.7,0.56,-0.14,0.42
9520,0.65,-0.35,0.7,0.63,-0.42,0.14
9540,0.65,-0.35,0.7,0.42,-0.07,0.28
9560,0.65,-0.35,0.7,1.26,-0.28,0.49
9580,0.64,-0.35,0.7,0.77,-0.63,0.28
9600,0.65,-0.35,0.7,0.63,-0.7,0.49
9620,0.65,-0.35,0.7,0.98,-0.77,0.49
9640,0.65,-0.35,0.7,1.05,-0.7,0.56
9660,0.65,-0.36,0.7,0.98,-0.84,0.56
9680,0.64,-0.36,0.7,1.19,-1.33,0.63
9700,0.64,-0.36,0.7,0.98,-1.96,0.35
9720,0.65,-0.35,0.7,0.56,-2.03,0.21
9740,0.65,-0.35,0.7,0.7,-2.59,0.63
9760,0.65,-0.35,0.7,0.49,-2.52,0.63
9780,0.65,-0.35,0.7,0.14,-2.52,0.49
9800,0.65,-0.35,0.7,0.0,-2.59,0.28
9820,0.65,-0.35,0.7,0.49,-2.38,0.21
9840,0.65,-0.35,0.7,0.0,-2.45,0.21
9860,0.65,-0.35,0.7,-0.42,-2.31,0.21
9880,0.65,-0.35,0.7,-0.14,-2.52,-0.07
9900,0.65,-0.35,0.7,-0.14,-2.66,0.07
9920,0.65,-0.35,0.69,0.28,-2.52,0.49
9940,0.65,-0.35,0.7,0.07,-2.24,0.42
9960,0.65,-0.35,0.7,0.14,-1.82,0.14
9980,0.65,-0.35,0.7,-0.21,-1.68,0.21
10000,0.65,-0.35,0.7,0.14,-1.54,0.28
10020,0.65,-0.35,0.7,-0.14,-1.54,-0.14
10040,0.65,-0.35,0.7,-0.28,-1.54,-0.14
10060,0.65,-0.35,0.7,0.0,-1.61,0.42
10080,0.65,-0.35,0.69,-0.07,-1.61,0.21
10100,0.65,-0.35,0.7,-0.14,-1.26,-0.07
10120,0.65,-0.35,0.69,0.21,-1.05,-17.85
10140,0.65,-0.35,0.69,-0.35,-1.4,-0.07
10160,0.65,-0.35,0.69,-0.21,-1.61,0.28
10180,0.65,-0.36,0.69,-0.14,-1.47,0.0
10200,0.65,-0.35,0.69,-0.21,-1.33,-0.28
10220,0.65,-0.35,0.69,-0.07,-1.75,0.07
10240,0.65,-0.35,0.69,0.35,-1.4,0.49
10260,0.65,-0.35,0.69,0.35,-1.19,0.49
10280,0.65,-0.35,0.69,0.21,-1.75,0.14
10300,0.65,-0.35,0.69,0.0,-1.47,0.28
10320,0.65,-0.35,0.69,0.28,-1.61,0.35
10340,0.66,-0.35,0.69,0.07,-1.68,0.07
10360,0.66,-0.35,0.69,0.14,-1.61,0.21
10380,0.65,-0.35,0.69,0.49,-1.82,0.28
10400,0.65,-0.36,0.69,0.28,-1.82,0.42
10420,0.65,-0.35,0.69,0.56,-2.03,0.35
10440,0.65,-0.35,0.7,0.14,-1.19,0.21
10460,0.66,-0.35,0.7,1.26,0.63,0.21
10480,0.66,-0.35,0.69,-0.35,0.49,0.49
10500,0.65,-0.36,0.69,0.28,0.49,0.14
10520,0.65,-0.35,0.69,0.7,0.35,-0.63
10540,0.65,-0.35,0.69,0.07,0.0,-0.14
10560,0.65,-0.35,0.7,0.49,-0.07,0.42
10580,0.65,-0.35,0.69,0.21,-0.14,0.14
10600,0.65,-0.35,0.69,0.56,0.0,-0.07
10620,0.65,-0.36,0.7,0.42,0.0,0.07
10640,0.66,-0.35,0.7,0.63,0.07,0.14
10660,0.65,-0.35,0.7,0.28,0.0,-0.21
10680,0.65,-0.35,0.69,0.28,0.21,0.14
10700,0.65,-0.35,0.7,0.56,-0.07,0.21
10720,0.65,-0.35,0.7,0.84,-0.77,-0.14
10740,0.65,-0.35,0.7,0.84,-0.28,0.35
10760,0.65,-0.35,0.69,0.21,-0.56,0.07
10780,0.65,-0.35,0.7,0.77,-0.49,0.35
10800,0.65,-0.35,0.7,0.49,0.07,0.49
10820,0.65,-0.35,0.7,0.63,-0.28,0.0
10840,0.65,-0.35,0.7,0.49,-0.7,0.21
10860,0.65,-0.35,0.7,0.77,-0.7,0.56
10880,0.65,-0.35,0.7,0.98,-0.84,0.42
10900,0.65,-0.35,0.7,0.56,-0.98,0.35
10920,0.65,-0.35,0.7,0.91,-0.63,0.49
10940,0.65,-0.35,0.7,0.77,-0.77,0.56
10960,0.65,-0.35,0.7,1.05,-0.42,0.63
10980,0.64,-0.35,0.7,1.26,-0.98,0.77
11000,0.64,-0.35,0.7,1.47,-1.12,0.7
11020,0.65,-0.36,0.7,1.47,-1.33,0.49
11040,0.65,-0.35,0.7,0.84,-1.61,0.49
11060,0.64,-0.35,0.7,0.35,-2.03,0.63
11080,0.65,-0.35,0.7,0.49,-2.17,0.35
11100,0.65,-0.35,0.7,0.0,-1.47,0.35
11120,0.65,-0.36,0.7,0.07,-1.82,0.21
11140,0.65,-0.35,0.7,-0.07,-1.89,0.21
11160,0.65,-0.35,0.7,-0.07,-2.38,0.28
11180,0.65,-0.35,0.7,-0.07,-2.52,0.28
11200,0.65,-0.35,0.7,0.0,-2.31,0.14
11220,0.65,-0.35,0.7,0.0,-2.1,0.14
11240,0.65,-0.35,0.7,-0.07,-2.1,0.28
11260,0.65,-0.35,0.7,-0.07,-2.03,0.28
11280,0.65,-0.35,0.7,-0.14,-2.03,0.0
11300,0.65,-0.35,0.7,0.0,-1.89,0.14
11320,0.65,-0.35,0.7,0.14,-2.03,0.28
11340,0.65,-0.35,0.7,-0.07,-1.82,0.14
11360,0.65,-0.35,0.7,0.63,-1.54,0.21
11380,0.65,-0.35,0.7,0.14,-1.68,0.07
11400,0.65,-0.35,0.7,0.0,-1.75,0.14
11420,0.65,-0.35,0.7,0.0,-1.54,0.56
11440,0.65,-0.36,0.7,-0.14,-1.89,0.14
11460,0.65,-0.35,0.69,-0.07,-1.89,-0.14
11480,0.65,-0.35,0.7,-0.14,-2.1,0.35
11500,0.65,-0.35,0.7,0.28,-1.82,0.21
11520,0.65,-0.35,0.69,-0.21,-1.54,0.0
11540,0.65,-0.35,0.69,-0.21,-1.75,0.07
11560,0.65,-0.35,0.7,-0.35,-1.61,0.14
11580,0.66,-0.35,0.7,-0.21,-1.47,-0.07
11600,0.65,-0.35,0.7,0.0,-1.61,-0.07
11620,0.65,-0.35,0.69,0.21,-1.82,0.0
11640,0.65,-0.35,0.69,-0.14,-1.68,0.07
11660,0.65,-0.35,0.69,-0.07,-1.61,0.21
11680,0.65,-0.35,0.7,0.28,-1.54,0.28
11700,0.65,-0.35,0.69,0.35,-1.68,0.07
11720,0.65,-0.35,0.69,0.35,-1.4,0.14
11740,0.65,-0.35,0.69,0.0,-1.4,0.42
11760,0.65,-0.35,0.69,0.49,-1.82,0.21
11780,0.66,-0.35,0.69,0.35,-1.96,0.28
11800,0.66,-0.35,0.7,0.35,-0.98,0.56
11820,0.66,-0.35,0.7,0.91,-0.28,0.84
11840,0.65,-0.35,0.69,0.0,-0.07,0.28
11860,0.65,-0.35,0.69,0.14,0.35,0.07
11880,0.65,-0.35,0.7,0.35,-0.21,-0.21
11900,0.65,-0.35,0.7,0.28,-0.07,-0.28
11920,0.65,-0.35,0.69,0.91,0.07,0.0
11940,0.65,-0.35,0.69,0.42,-0.7,0.21
11960,0.65,-0.35,0.69,0.49,-0.84,0.0
11980,0.65,-0.36,0.7,0.77,0.14,0.07
12000,0.65,-0.35,0.7,0.42,0.7,0.14
12020,0.65,-0.35,0.69,0.14,-0.07,0.0
12040,0.65,-0.35,0.7,0.63,0.28,0.21
12060,0.65,-0.35,0.7,0.42,-0.21,0.0
12080,0.64,-0.35,0.7,0.56,-0.28,0.07
12100,0.65,-0.35,0.7,0.56,-0.28,0.21
12120,0.65,-0.35,0.7,0.49,-0.49,0.35
12140,0.65,-0.35,0.7,0.42,-0.42,0.14
12160,0.65,-0.35,0.7,0.42,-0.56,0.14
12180,0.65,-0.35,0.7,0.35,-0.56,0.35
12200,0.65,-0.35,0.7,0.56,-0.56,0.14
12220,0.65,-0.35,0.7,0.49,-0.77,0.28
12240,0.65,-0.35,0.7,0.77,-0.77,0.56
12260,0.65,-0.35,0.7,1.12,-0.56,0.56
12280,0.64,-0.35,0.7,1.12,-0.77,0.42
12300,0.65,-0.35,0.7,1.47,-0.7,0.77
12320,0.64,-0.35,0.7,1.4,-0.49,0.84
12340,0.64,-0.35,0.7,1.4,-1.33,0.7
12360,0.64,-0.35,0.7,1.05,-1.26,0.84
12380,0.65,-0.36,0.7,0.84,-1.89,0.42
12400,0.64,-0.35,0.7,0.63,-1.96,0.28
12420,0.64,-0.35,0.7,0.35,-2.24,0.56
12440,0.65,-0.35,0.7,0.21,-2.17,0.42
12460,0.64,-0.35,0.7,0.0,-2.17,0.21
12480,0.65,-0.35,0.7,-0.42,-1.96,0.07
12500,0.65,-0.35,0.7,-0.35,-2.03,0.28
12520,0.65,-0.35,0.7,0.28,-2.17,0.14
12540,0.65,-0.35,0.7,-0.14,-2.52,-0.07
12560,0.65,-0.35,0.7,-0.49,-2.45,-0.07
12580,0.65,-0.35,0.7,-0.14,-2.03,0.14
12600,0.65,-0.35,0.7,-0.35,-1.68,0.14
12620,0.65,-0.35,0.69,0.0,-1.68,0.0
12640,0.65,-0.35,0.7,0.0,-1.89,-0.07
12660,0.65,-0.35,0.7,-17.92,-1.75,0.14
12680,0.65,-0.35,0.7,-0.21,-1.4,0.42
12700,0.65,-0.35,0.7,0.14,-1.61,0.28
12720,0.65,-0.35,0.7,0.07,-1.68,-0.07
12740,0.65,-0.35,0.7,-0.07,-1.75,0.07
12760,0.65,-0.35,0.7,0.14,-1.61,0.21
12780,0.65,-0.35,0.7,-0.14,-1.75,0.0
12800,0.65,-0.35,0.69,-0.35,-1.61,0.14
12820,0.65,-0.35,0.7,0.21,-1.68,0.14
12840,0.65,-0.35,0.69,-0.07,-1.75,0.0
12860,0.65,-0.35,0.69,-0.28,-2.1,-0.07
12880,0.65,-0.35,0.7,0.0,-1.89,0.14
12900,0.65,-0.35,0.7,-0.14,-1.82,0.14
12920,0.65,-0.35,0.69,0.14,-1.54,0.14
12940,0.66,-0.35,0.7,-0.14,-1.33,-0.07
12960,0.65,-0.35,0.69,0.21,-1.19,0.14
12980,0.66,-0.35,0.7,0.35,-1.19,0.35
13000,0.65,-0.35,0.7,-0.14,-1.12,0.35
13020,0.65,-0.35,0.69,0.42,-1.19,0.0
13040,0.65,-0.35,0.69,-0.07,-1.26,0.07
13060,0.66,-0.35,0.69,-0.07,-1.54,0.21
13080,0.65,-0.35,0.69,0.14,-1.33,0.35
13100,0.65,-0.35,0.69,0.07,-1.33,0.0
13120,0.65,-0.35,0.69,0.07,-1.61,0.14
13140,0.65,-0.35,0.7,0.49,-2.03,0.42
13160,0.65,-0.35,0.7,0.77,-0.98,0.21
13180,0.66,-0.35,0.7,0.77,-0.63,0.49
13200,0.66,-0.35,0.69,0.07,-0.28,0.63
13220,0.65,-0.35,0.69,0.56,-0.21,0.42
13240,0.65,-0.35,0.69,0.14,0.14,-0.14
13260,0.65,-0.36,0.7,0.56,-0.14,0.0
13280,0.65,-0.35,0.69,0.35,-0.28,0.14
13300,0.66,-0.35,0.7,0.49,-0.7,0.14
13320,0.65,-0.35,0.7,0.14,-0.28,0.14
13340,0.65,-0.35,0.69,0.84,0.35,0.07
13360,0.65,-0.35,0.7,0.42,0.21,-0.07
13380,0.65,-0.35,0.7,0.56,0.42,0.28
13400,0.65,-0.35,0.7,0.42,0.35,0.07
13420,0.65,-0.35,0.7,1.05,-0.07,0.21
13440,0.65,-0.35,0.7,0.91,0.42,0.14
13460,0.65,-0.35,0.7,0.28,-0.14,0.07
13480,0.65,-0.35,0.7,0.63,17.85,0.14
13500,0.65,-0.35,0.7,0.28,-0.42,0.07
13520,0.65,-0.35,0.7,0.7,-0.07,0.0
13540,0.65,-0.35,0.7,0.63,-0.28,0.14
13560,0.65,-0.35,0.7,0.49,-0.35,0.35
13580,0.65,-0.35,0.7,0.63,-0.77,0.35
13600,0.65,-0.35,0.7,0.28,-0.49,0.21
13620,0.65,-0.35,0.7,0.77,-0.91,0.49
13640,0.65,-0.35,0.7,0.14,-0.49,0.35
13660,0.64,-0.35,0.7,0.63,-0.28,0.21
13680,0.64,-0.35,0.7,0.91,-0.49,0.49
13700,0.64,-0.35,0.7,1.33,-0.7,0.91
13720,0.64,-0.35,0.7,1.82,-0.84,0.91
13740,0.64,-0.35,0.7,1.54,-1.19,0.56
13760,0.65,-0.35,0.7,1.26,-1.61,0.56
13780,0.64,-0.35,0.71,0.84,-1.68,0.49
13800,0.65,-0.35,0.7,0.21,-1.54,0.28
13820,0.64,-0.35,0.7,0.14,-1.89,0.35
13840,0.65,-0.35,0.7,0.28,-1.89,0.21
13860,0.65,-0.35,0.7,-0.35,-1.61,0.07
13880,0.64,-0.35,0.7,-0.14,-1.82,-0.07
13900,0.65,-0.35,0.7,-0.14,-2.17,0.14
13920,0.65,-0.35,0.7,-0.35,-2.24,-0.07
13940,0.65,-0.35,0.7,-0.21,-2.31,0.07
13960,0.65,-0.35,0.7,-0.21,-1.75,0.14
13980,0.65,-0.35,0.7,-0.14,-1.68,-0.14
14000,0.65,-0.35,0.7,-0.21,-1.75,-0.14
14020,0.65,-0.35,0.7,0.0,-1.89,0.35
14040,0.65,-0.35,0.7,0.07,-2.1,0.28
14060,0.65,-0.35,0.7,0.21,-1.68,0.07
14080,0.65,-0.35,0.7,0.07,-1.75,0.42
14100,0.65,-0.35,0.7,0.14,-1.68,0.21
14120,0.65,-0.35,0.7,-0.07,-1.75,0.07
14140,0.65,-0.35,0.7,-0.07,-2.03,0.21
14160,0.65,-0.35,0.7,0.14,-2.1,0.0
14180,0.65,-0.35,0.7,0.0,-2.1,0.21
14200,0.65,-0.35,0.7,-0.14,-1.82,0.14
14220,0.65,-0.35,0.7,0.07,-1.96,0.0
14240,0.65,-0.35,0.7,-0.21,-1.96,0.07
14260,0.65,-0.35,0.7,-0.14,-1.61,0.35
14280,0.65,-0.35,0.7,0.0,-1.96,0.21
14300,0.65,-0.35,0.69,-0.14,-1.54,-0.28
14320,0.65,-0.35,0.7,0.7,-2.24,0.21
14340,0.65,-0.35,0.7,0.0,-1.82,0.42
14360,0.65,-0.35,0.7,-0.07,-1.61,0.21
14380,0.65,-0.35,0.7,0.0,-1.61,0.07
14400,0.65,-0.35,0.69,0.14,-1.61,0.35
14420,0.65,-0.35,0.7,0.28,-1.33,0.35
14440,0.65,-0.35,0.7,0.14,-1.47,0.14
14460,0.65,-0.35,0.69,0.07,-1.89,0.14
14480,0.66,-0.35,0.69,-0.07,-1.54,0.14
14500,0.65,-0.35,0.7,0.21,-1.47,0.35
14520,0.65,-0.35,0.69,0.21,-1.68,0.21
14540,0.65,-0.35,0.69,0.14,-1.68,0.14
14560,0.65,-0.35,0.69,0.35,-1.82,0.35
14580,0.65,-0.34,0.7,0.28,-0.21,0.56
14600,0.65,-0.35,0.69,0.49,-0.42,0.56
14620,0.65,-0.35,0.69,0.21,0.35,0.28
14640,0.65,-0.35,0.69,0.49,-0.42,-0.07
14660,0.65,-0.35,0.7,0.35,-0.35,-0.14
14680,0.65,-0.35,0.7,0.63,0.14,0.28
14700,0.65,-0.35,0.69,0.56,-0.07,0.28
14720,0.65,-0.35,0.7,0.56,-0.21,0.14
14740,0.65,-0.35,0.7,0.84,-0.21,0.21
14760,0.65,-0.35,0.7,0.14,0.0,0.0
14780,0.65,-0.35,0.7,0.28,0.35,0.0
14800,0.65,-0.35,0.7,0.42,-0.07,0.14
14820,0.65,-0.35,0.7,0.63,0.0,0.28
14840,0.65,-0.35,0.7,0.63,0.35,-0.14
14860,0.65,-0.35,0.7,0.84,-0.35,-0.35
14880,0.65,-0.35,0.7,0.14,-0.28,-0.28
14900,0.65,-0.35,0.7,0.21,0.21,-0.28
14920,0.65,-0.35,0.7,0.35,0.35,-0.7
14940,0.65,-0.35,0.7,0.07,0.91,-0.77
14960,0.65,-0.35,0.7,0.56,0.49,-0.21
14980,0.65,-0.35,0.7,0.7,0.21,-0.91
15000,0.65,-0.35,0.7,0.98,1.19,-0.07
15020,0.64,-0.34,0.7,0.91,-0.07,0.49
15040,0.64,-0.35,0.7,1.19,-0.91,1.33
15060,0.64,-0.34,0.71,1.47,-0.7,1.26
15080,0.65,-0.35,0.71,1.26,-0.91,0.77
15100,0.64,-0.34,0.7,1.26,-0.91,0.77
15120,0.64,-0.35,0.7,0.91,-0.63,1.05
15140,0.64,-0.35,0.7,1.19,-0.84,0.7
15160,0.64,-0.35,0.7,0.84,-1.26,0.42
15180,0.64,-0.35,0.71,0.91,-1.26,0.35
15200,0.64,-0.35,0.7,0.56,-2.17,0.56
15220,0.64,-0.35,0.7,0.7,-1.96,0.91
15240,0.65,-0.35,0.7,0.28,-2.17,0.63
15260,0.64,-0.35,0.7,-0.14,-2.17,0.21
15280,0.65,-0.35,0.7,0.07,-2.59,0.28
15300,0.65,-0.35,0.71,-0.35,-2.87,0.28
15320,0.65,-0.35,0.7,-0.35,-2.94,0.21
15340,0.65,-0.34,0.7,-0.07,-2.31,0.56
15360,0.65,-0.35,0.7,-0.28,-1.89,0.77
15380,0.65,-0.35,0.7,0.07,-2.1,0.28
15400,0.65,-0.35,0.7,-0.28,-1.68,-0.56
15420,0.65,-0.35,0.7,-0.28,-2.03,-0.91
15440,0.65,-0.35,0.7,0.21,-1.47,-0.56
15460,0.65,-0.35,0.7,-0.14,-1.68,0.0
15480,0.65,-0.35,0.7,-0.35,-1.4,0.07
15500,0.65,-0.35,0.7,-0.35,-1.54,0.14
15520,0.65,-0.35,0.7,0.07,-2.24,0.07
15540,0.65,-0.35,0.7,0.07,-1.89,0.49
15560,0.65,-0.35,0.7,0.21,-2.31,0.0
15580,0.65,-0.35,0.7,-0.56,-1.61,-0.35
15600,0.65,-0.35,0.7,-0.7,-1.89,0.0
15620,0.65,-0.35,0.7,-0.35,-1.82,0.0
15640,0.65,-0.35,0.7,-0.35,-1.54,-0.14
15660,0.65,-0.35,0.7,-0.35,-1.61,-0.07
15680,0.65,-0.35,0.7,-0.28,-1.82,0.42
15700,0.65,-0.35,0.7,0.0,-2.24,0.56
15720,0.65,-0.35,0.7,-0.21,-1.82,0.0
15740,0.65,-0.35,0.69,0.0,-2.17,0.28
15760,0.66,-0.35,0.7,0.35,-2.03,0.63
15780,0.65,-0.35,0.7,0.0,-1.68,0.14
15800,0.65,-0.35,0.69,-0.28,-0.98,0.0
15820,0.65,-0.35,0.7,0.07,-1.19,0.42
15840,0.66,-0.35,0.7,0.07,-1.12,0.21
15860,0.65,-0.35,0.7,0.28,-1.05,0.21
15880,0.65,-0.35,0.7,-0.07,-1.33,-0.07
15900,0.65,-0.35,0.69,0.07,-1.47,0.07
15920,0.65,-0.35,0.7,0.21,-1.75,0.35
15940,0.65,-0.35,0.7,0.0,-0.98,0.35
15960,0.65,-0.35,0.7,0.07,-0.14,0.14
15980,0.65,-0.35,0.7,-0.7,0.21,0.14
16000,0.65,-0.35,0.69,0.28,0.21,0.07
