t,ax,ay,az,gx,gy,gz
10920, -0.18, -0.13, 0.94, 17.99, -3.08, 73.08
10921, -0.21, 0.01, 1.04, 2.66, 6.16, 58.38
10922, -0.26, 0.01, 1.05, -31.99, 27.44, 37.80
10923, -0.32, -0.18, 1.17, -64.75, 53.62, 4.55
10924, -0.50, -0.23, 1.17, -60.62, 35.07, -12.88
10925, -0.46, -0.21, 1.02, -59.22, -8.19, -36.75
10926, -0.36, -0.29, 0.91, -54.95, -51.03, -70.98
10927, -0.28, -0.34, 0.88, -51.52, -76.44, -70.00
10928, -0.13, -0.32, 0.97, -52.29, -29.75, -48.86
10929, -0.10, -0.37, 0.95, -35.21, 8.68, -45.85
10930, -0.09, -0.37, 0.93, -14.07, -3.43, -54.74
10931, -0.08, -0.28, 0.96, -1.68, -9.38, -54.74
10932, -0.02, -0.20, 0.94, -1.47, 9.80, -49.91
10933, 0.01, -0.18, 0.97, -12.81, 23.73, -53.41
10934, -0.05, -0.19, 0.77, -0.21, 20.93, -71.05
10935, -0.16, -0.29, 0.84, 15.47, -1.33, -89.04
10936, -0.08, -0.44, 0.85, 26.39, -2.10, -68.88
10937, -0.06, -0.49, 1.12, 35.28, 11.20, -48.30
10938, -0.00, -0.49, 1.09, 21.00, 51.94, -16.66
10939, -0.15, -0.60, 1.21, 6.86, 79.17, 15.89
10940, -0.24, -0.60, 1.07, 66.71, 47.39, 43.82
10941, -0.36, -0.43, 0.97, 99.68, 15.47, 72.80
10942, -0.31, -0.34, 0.81, 125.58, 26.53, 91.91
10943, -0.18, -0.28, 0.97, 97.44, 57.19, 78.82
10944, -0.19, -0.08, 0.93, 41.79, 71.82, 76.65
10945, -0.35, 0.03, 0.91, 20.16, 40.60, 70.84
10946, -0.28, -0.02, 0.88, -6.37, -18.76, 42.63
10947, -0.10, -0.04, 0.92, -20.86, -36.68, 38.36
10948, -0.03, -0.03, 0.96, -25.90, -16.66, 49.35
10949, -0.06, -0.06, 0.82, -16.94, -3.22, 66.85
10950, -0.21, -0.13, 0.87, 13.86, -13.09, 91.07
10951, -0.30, -0.05, 0.89, 12.81, -21.35, 91.07
10952, -0.34, 0.05, 1.09, -7.07, -12.25, 61.18
10953, -0.33, 0.05, 1.11, -71.47, 33.74, 0.77
10954, -0.57, -0.11, 1.34, -109.41, 68.18, -31.22
10955, -0.69, -0.13, 1.05, -87.99, -2.45, -64.26
10956, -0.52, -0.34, 0.87, -85.40, -78.82, -87.85
10957, -0.41, -0.24, 0.83, -93.66, -74.06, -77.14
10958, -0.26, -0.30, 1.00, -94.50, -47.60, -90.37
10959, -0.13, -0.37, 0.90, -77.00, -25.97, -101.29
10960, -0.08, -0.42, 0.88, -36.68, -24.01, -88.90
10961, -0.00, -0.34, 0.90, -4.27, -15.75, -71.47
10962, 0.05, -0.27, 0.90, 2.24, 7.84, -52.99
10963, -0.02, -0.24, 0.74, 15.89, 25.83, -56.14
10964, -0.16, -0.32, 0.79, 27.37, -6.16, -73.36
10965, -0.06, -0.50, 0.85, 45.78, -3.92, -66.57
10966, -0.02, -0.53, 1.14, 63.98, 32.34, -34.79
10967, -0.02, -0.53, 1.14, 36.33, 84.56, 4.83
10968, -0.27, -0.63, 1.24, 36.68, 94.57, 37.31
10969, -0.39, -0.62, 1.07, 119.07, 54.25, 67.41
10970, -0.45, -0.43, 0.89, 115.22, 24.85, 107.17
10971, -0.36, -0.29, 0.69, 95.27, 43.26, 103.53
10972, -0.31, -0.22, 0.88, 84.21, 51.73, 93.24
10973, -0.31, -0.07, 0.90, 46.34, 50.26, 84.84
10974, -0.33, 0.00, 0.90, 21.49, 30.45, 75.32
10975, -0.29, 0.05, 0.91, -1.12, -10.85, 53.41
10976, -0.16, 0.03, 0.92, -17.22, -22.89, 41.86
10977, -0.08, -0.02, 0.98, -18.83, -11.48, 46.13
10978, -0.13, -0.06, 0.83, 3.29, 0.77, 64.33
10979, -0.22, -0.05, 0.90, 11.62, -22.19, 75.39
10980, -0.34, 0.08, 0.94, 12.11, -14.98, 70.21
10981, -0.35, 0.09, 1.06, -10.71, 1.54, 32.34
10982, -0.41, -0.03, 1.14, -56.28, 41.93, -18.76
10983, -0.65, -0.12, 1.19, -81.20, 41.93, -38.99
10984, -0.65, -0.12, 1.00, -68.60, -16.59, -49.28
10985, -0.62, -0.15, 0.93, -58.24, -73.64, -62.37
10986, -0.46, -0.13, 0.72, -54.46, -87.99, -54.04
10987, -0.38, -0.17, 0.99, -69.72, -70.56, -62.93
10988, -0.23, -0.22, 0.92, -67.34, -37.59, -68.18
10989, -0.19, -0.27, 0.94, -47.53, -36.12, -60.69
10990, -0.10, -0.24, 0.95, -26.67, -33.46, -52.57
10991, -0.02, -0.17, 0.96, -20.51, -18.83, -43.61
10992, 0.05, -0.17, 0.96, -26.46, 8.26, -32.55
10993, 0.00, -0.16, 0.88, -15.75, 28.21, -38.08
10994, -0.14, -0.22, 0.79, -3.78, 15.89, -56.56
10995, -0.21, -0.32, 0.87, 23.80, 16.31, -50.05
10996, -0.15, -0.44, 1.05, 15.19, 25.27, -49.49
10997, -0.14, -0.47, 1.05, 17.01, 63.91, -19.53
10998, -0.31, -0.55, 1.20, 13.79, 69.51, 8.54
10999, -0.33, -0.58, 1.04, 68.88, 43.26, 36.61
11000, -0.43, -0.45, 0.99, 86.10, 23.59, 72.10
11001, -0.43, -0.29, 0.75, 110.39, 26.11, 108.43
11002, -0.31, -0.26, 0.79, 108.15, 12.53, 101.50
11003, -0.26, -0.12, 1.03, 55.51, 30.38, 84.14
11004, -0.34, 0.01, 0.96, 20.02, 47.67, 77.77
11005, -0.37, 0.03, 0.94, 0.00, 12.04, 61.53
11006, -0.26, 0.02, 0.91, -16.59, -21.63, 50.12
11007, -0.13, -0.03, 0.93, -23.45, -14.49, 49.63
11008, -0.12, -0.02, 0.99, -21.07, -1.26, 60.90
11009, -0.20, -0.01, 0.85, -7.21, 6.79, 77.21
11010, -0.27, -0.05, 0.85, -2.24, -11.55, 78.75
11011, -0.39, 0.06, 0.89, -6.79, -5.88, 76.72
11012, -0.42, 0.08, 1.03, -20.30, 7.35, 41.93
11013, -0.47, 0.00, 1.10, -54.11, 52.01, 9.17
11014, -0.70, -0.11, 1.18, -77.56, 50.05, -18.76
11015, -0.71, -0.12, 0.96, -48.30, -21.63, -38.92
11016, -0.67, -0.18, 0.94, -41.51, -83.93, -61.88
11017, -0.48, -0.14, 0.79, -48.23, -101.01, -65.59
11018, -0.37, -0.15, 0.89, -59.43, -75.04, -70.70
11019, -0.23, -0.24, 0.96, -66.15, -53.34, -78.96
11020, -0.14, -0.28, 0.96, -44.73, -36.19, -74.97
11021, -0.11, -0.27, 0.96, -16.80, -25.69, -63.14
11022, -0.06, -0.16, 0.95, -7.07, -7.77, -51.59
11023, -0.02, -0.11, 0.97, -22.33, 8.61, -42.00
11024, -0.02, -0.13, 0.91, -18.20, 20.65, -47.67
11025, -0.14, -0.20, 0.85, -17.50, 8.40, -65.03
11026, -0.15, -0.31, 0.87, -1.54, 9.38, -56.14
11027, -0.14, -0.38, 0.95, -1.33, 14.07, -51.45
11028, -0.17, -0.46, 1.04, 2.52, 34.79, -31.15
11029, -0.30, -0.53, 1.15, 2.17, 61.18, 0.91
11030, -0.32, -0.67, 1.16, 67.48, 39.90, 22.33
11031, -0.32, -0.53, 0.99, 98.21, 16.31, 61.81
11032, -0.37, -0.34, 0.95, 97.23, 34.16, 102.83
11033, -0.33, -0.23, 0.82, 80.57, 24.29, 101.36
11034, -0.26, -0.17, 0.88, 67.20, 28.35, 81.13
11035, -0.27, -0.08, 0.94, 32.13, 39.13, 75.60
11036, -0.29, -0.05, 0.91, 19.32, 27.37, 71.75
11037, -0.26, -0.02, 0.90, 2.59, 2.45, 62.72
11038, -0.16, -0.00, 0.96, -8.26, -10.01, 56.49
11039, -0.11, 0.01, 0.97, -20.16, -2.10, 58.03
11040, -0.16, -0.00, 0.83, -4.41, 0.56, 71.89
11041, -0.28, -0.08, 0.89, 21.56, -10.78, 82.81
11042, -0.37, 0.05, 0.89, 1.61, -17.22, 73.36
11043, -0.38, 0.11, 1.05, -15.89, -5.67, 46.27
11044, -0.40, 0.07, 1.04, -51.31, 41.23, 10.50
11045, -0.63, -0.09, 1.21, -75.25, 70.63, -14.49
11046, -0.73, -0.12, 1.03, -69.37, -8.26, -40.32
11047, -0.69, -0.22, 0.99, -60.06, -80.64, -66.92
11048, -0.47, -0.25, 0.76, -61.18, -113.33, -83.44
11049, -0.36, -0.27, 0.86, -65.80, -89.32, -79.17
11050, -0.24, -0.30, 1.00, -57.54, -48.09, -75.81
11051, -0.13, -0.31, 0.92, -38.92, -24.78, -72.59
11052, -0.11, -0.29, 0.95, -9.45, -21.28, -66.64
11053, -0.08, -0.20, 0.94, 3.92, -9.38, -61.11
11054, -0.04, -0.11, 0.95, -0.49, 5.88, -59.78
11055, -0.03, -0.12, 0.97, -12.88, 22.12, -60.48
11056, -0.08, -0.16, 0.85, -8.19, 24.50, -72.24
11057, -0.18, -0.24, 0.85, -7.98, 16.31, -72.73
11058, -0.14, -0.37, 0.87, -6.30, 19.67, -63.28
11059, -0.14, -0.43, 1.02, 3.78, 23.03, -48.79
11060, -0.13, -0.46, 1.03, -13.93, 59.71, -20.23
11061, -0.33, -0.63, 1.19, 3.15, 61.18, -10.01
11062, -0.30, -0.69, 1.03, 100.45, 28.63, 16.03
11063, -0.37, -0.56, 1.02, 101.43, 13.86, 56.49
11064, -0.33, -0.34, 0.89, 84.28, 28.70, 95.55
11065, -0.32, -0.20, 0.75, 86.31, 10.50, 99.40
11066, -0.24, -0.16, 0.98, 68.81, 9.66, 77.49
11067, -0.23, -0.05, 0.97, 26.18, 30.45, 65.17
11068, -0.27, -0.04, 0.95, 16.31, 20.93, 58.45
11069, -0.19, -0.01, 0.92, 0.07, -9.24, 45.15
11070, -0.08, -0.03, 0.97, -12.46, -3.78, 41.79
11071, -0.07, 0.01, 0.93, -18.20, 11.48, 52.85
11072, -0.17, -0.03, 0.87, -0.77, 7.63, 74.13
11073, -0.25, -0.10, 0.87, 12.25, -11.55, 82.18
11074, -0.37, 0.04, 0.92, 2.31, -13.79, 73.22
11075, -0.39, 0.05, 1.05, -13.79, -1.61, 47.53
11076, -0.40, 0.04, 1.07, -56.14, 43.54, 9.10
11077, -0.61, -0.14, 1.23, -86.31, 64.61, -21.35
11078, -0.70, -0.14, 1.05, -71.05, -21.42, -42.21
11079, -0.64, -0.24, 0.96, -59.36, -77.77, -69.44
11080, -0.45, -0.22, 0.76, -51.45, -103.32, -79.45
11081, -0.32, -0.28, 0.92, -62.16, -76.37, -84.21
11082, -0.18, -0.32, 0.95, -50.19, -37.03, -83.44
11083, -0.13, -0.32, 0.92, -31.57, -22.89, -70.56
11084, -0.12, -0.28, 0.93, 1.33, -21.70, -64.61
11085, -0.07, -0.19, 0.96, 8.19, -12.81, -62.72
11086, -0.01, -0.11, 0.92, -4.27, 5.67, -61.60
11087, -0.04, -0.13, 0.87, -8.12, 10.43, -70.21
11088, -0.11, -0.18, 0.87, -6.23, -2.52, -80.64
11089, -0.12, -0.30, 0.91, -13.79, 3.22, -77.00
11090, -0.06, -0.41, 0.95, -7.49, 24.85, -60.41
11091, -0.07, -0.41, 1.04, 0.07, 42.91, -39.97
11092, -0.14, -0.44, 1.05, -16.17, 81.13, -13.23
11093, -0.30, -0.66, 1.15, 1.47, 68.60, -5.67
11094, -0.29, -0.70, 1.01, 98.70, 24.43, 22.82
11095, -0.37, -0.55, 1.02, 116.97, 7.77, 75.46
11096, -0.32, -0.29, 0.85, 120.05, 29.26, 100.38
11097, -0.26, -0.26, 0.86, 112.49, 32.97, 77.49
11098, -0.24, -0.14, 0.96, 65.38, 35.21, 63.35
11099, -0.30, -0.03, 0.93, 35.56, 34.72, 56.77
11100, -0.31, -0.02, 0.93, 25.69, 2.03, 44.66
11101, -0.17, -0.03, 0.94, 11.76, -18.20, 35.42
11102, -0.07, -0.00, 0.99, -0.91, -4.48, 34.79
11103, -0.04, 0.05, 1.00, -11.69, 14.84, 37.66
11104, -0.11, -0.00, 0.86, -3.29, 14.35, 54.25
11105, -0.28, -0.05, 0.88, 14.42, 0.42, 67.34
11106, -0.35, 0.02, 0.90, -5.39, -10.29, 54.53
11107, -0.36, 0.02, 1.02, -30.03, 2.94, 28.91
11108, -0.35, 0.01, 1.05, -54.95, 42.21, -0.28
11109, -0.57, -0.10, 1.25, -71.96, 76.93, -21.21
11110, -0.66, -0.10, 1.03, -63.14, 0.77, -50.75
11111, -0.63, -0.19, 0.96, -48.16, -63.63, -87.15
11112, -0.44, -0.25, 0.81, -70.14, -119.91, -107.94
11113, -0.31, -0.26, 0.90, -71.47, -73.43, -90.30
11114, -0.21, -0.32, 1.02, -67.62, -25.69, -86.38
11115, -0.13, -0.33, 0.91, -40.60, -13.86, -85.40
11116, -0.12, -0.32, 0.92, -6.23, -11.83, -78.75
11117, -0.05, -0.19, 0.93, 8.61, -3.43, -82.39
11118, -0.01, -0.16, 0.94, -6.37, 16.66, -83.79
11119, -0.06, -0.20, 0.96, 1.75, 33.11, -88.97
11120, -0.13, -0.30, 0.80, -4.20, 16.66, -96.74
11121, -0.19, -0.37, 0.83, 7.91, 14.42, -76.30
11122, -0.11, -0.48, 0.91, 14.77, 23.80, -60.55
11123, -0.07, -0.43, 1.10, 26.88, 55.30, -39.34
11124, -0.14, -0.43, 1.08, -3.43, 85.89, -24.71
11125, -0.31, -0.65, 1.13, 28.00, 68.32, -12.81
11126, -0.36, -0.66, 1.01, 95.13, 15.68, 27.44
11127, -0.38, -0.47, 0.98, 119.07, 8.19, 77.35
11128, -0.34, -0.28, 0.80, 123.41, 40.74, 102.69
11129, -0.26, -0.20, 0.85, 105.28, 51.24, 82.11
11130, -0.27, -0.09, 0.91, 48.58, 50.61, 73.71
11131, -0.34, 0.00, 0.92, 34.58, 36.47, 73.43
11132, -0.29, 0.04, 0.90, 20.79, -1.19, 50.68
11133, -0.17, 0.01, 0.94, 10.92, -15.54, 40.95
11134, -0.11, 0.04, 0.96, -1.05, 2.24, 47.95
11135, -0.23, 0.01, 0.87, -2.45, 4.06, 68.88
11136, -0.35, -0.04, 0.88, 8.12, -15.68, 77.63
11137, -0.40, 0.05, 0.87, -7.63, -28.98, 63.35
11138, -0.38, 0.11, 1.04, -17.92, -20.23, 33.25
11139, -0.32, 0.11, 1.04, -60.55, 23.94, -5.18
11140, -0.52, -0.07, 1.26, -86.03, 79.52, -20.79
11141, -0.70, -0.09, 1.06, -79.80, 10.64, -44.10
11142, -0.64, -0.22, 0.93, -54.81, -58.45, -70.56
11143, -0.52, -0.22, 0.86, -73.99, -117.88, -83.37
11144, -0.34, -0.19, 0.83, -68.04, -72.59, -80.43
11145, -0.28, -0.25, 0.97, -63.35, -46.90, -88.48
11146, -0.17, -0.28, 0.90, -41.79, -29.33, -88.97
11147, -0.13, -0.28, 0.92, -20.51, -30.66, -79.80
11148, -0.04, -0.18, 0.92, -8.47, -20.86, -76.72
11149, -0.01, -0.15, 1.00, -14.70, 16.31, -73.57
11150, -0.05, -0.19, 0.86, -10.78, 13.37, -78.89
11151, -0.18, -0.31, 0.81, -12.53, -15.26, -84.42
11152, -0.20, -0.43, 0.88, 17.78, 7.35, -59.85
11153, -0.10, -0.42, 0.96, 34.86, 16.38, -42.00
11154, -0.08, -0.37, 1.04, 11.06, 60.41, -17.36
11155, -0.16, -0.38, 1.06, -20.09, 83.58, -2.17
11156, -0.32, -0.62, 1.15, 15.96, 63.07, 7.42
11157, -0.32, -0.63, 0.98, 91.70, 19.95, 38.43
11158, -0.40, -0.47, 0.94, 108.85, 15.26, 84.98
11159, -0.37, -0.28, 0.73, 111.93, 26.32, 104.65
11160, -0.26, -0.24, 0.90, 102.06, 20.65, 86.80
11161, -0.27, -0.08, 0.95, 50.26, 38.15, 70.07
11162, -0.32, -0.05, 0.93, 29.47, 26.95, 59.78
11163, -0.29, -0.05, 0.92, 16.87, -8.05, 49.84
11164, -0.15, -0.03, 0.98, 14.42, -14.56, 48.79
11165, -0.09, 0.01, 1.00, 2.73, 8.40, 46.90
11166, -0.20, 0.01, 0.92, 5.32, 25.48, 61.88
11167, -0.36, -0.04, 0.89, 23.03, 0.14, 68.18
11168, -0.41, 0.03, 0.91, -4.13, -13.79, 56.63
11169, -0.38, 0.07, 0.98, -17.08, -3.29, 33.46
11170, -0.33, 0.04, 1.02, -45.92, 29.75, 7.70
11171, -0.46, -0.07, 1.15, -61.25, 83.02, -7.70
11172, -0.64, -0.09, 1.01, -67.27, 35.98, -25.41
11173, -0.66, -0.09, 0.95, -46.83, -20.72, -36.40
11174, -0.60, -0.09, 0.94, -49.42, -76.23, -75.67
11175, -0.40, -0.15, 0.83, -57.68, -97.58, -98.63
11176, -0.29, -0.20, 0.87, -67.90, -68.95, -88.48
11177, -0.21, -0.26, 1.00, -58.52, -39.27, -84.35
11178, -0.17, -0.27, 0.93, -34.65, -26.95, -85.12
11179, -0.14, -0.27, 0.96, -18.06, -27.02, -84.21
11180, -0.06, -0.20, 0.94, -11.62, -14.70, -82.25
11181, -0.02, -0.17, 0.96, -18.83, 2.80, -90.02
11182, -0.10, -0.23, 0.91, -9.66, 18.97, -102.48
11183, -0.17, -0.37, 0.89, -2.66, -0.63, -98.49
11184, -0.16, -0.48, 0.89, 7.56, 0.56, -74.90
11185, -0.13, -0.43, 0.91, 26.88, 15.26, -35.35
11186, -0.04, -0.33, 1.14, 28.63, 36.40, -32.55
11187, -0.07, -0.34, 1.03, -4.06, 70.28, -20.16
11188, -0.27, -0.55, 1.17, -0.91, 61.74, -10.01
11189, -0.35, -0.67, 1.07, 86.10, 16.10, 24.92
11190, -0.27, -0.42, 0.99, 93.03, 6.30, 60.13
11191, -0.27, -0.27, 0.88, 96.53, 31.01, 78.75
11192, -0.25, -0.25, 0.82, 133.70, 39.41, 76.23
11193, -0.24, -0.20, 1.06, 97.65, 29.47, 72.52
11194, -0.26, -0.05, 0.95, 47.32, 56.14, 51.52
11195, -0.31, 0.01, 0.88, 20.93, 12.67, 41.86
11196, -0.25, -0.00, 0.90, 18.34, -20.09, 33.81
11197, -0.16, -0.06, 0.96, 25.27, -21.21, 47.81
11198, -0.20, -0.09, 0.87, 23.52, -0.07, 64.96
11199, -0.34, -0.05, 0.92, 22.54, -10.50, 69.51
11200, -0.42, 0.05, 0.93, 4.76, -26.81, 45.22
11201, -0.31, 0.02, 0.95, -23.94, -32.76, 14.77
11202, -0.20, -0.01, 1.01, -31.15, -15.68, 11.06
11203, -0.16, -0.02, 1.03, -45.43, 24.71, 5.32
11204, -0.20, -0.05, 1.03, -45.29, 58.24, -6.02
11205, -0.46, -0.10, 1.13, -28.77, 77.84, -18.06
11206, -0.57, -0.01, 1.04, -40.53, 26.32, -28.49
11207, -0.50, 0.03, 0.99, -39.69, -20.79, -55.30
11208, -0.41, -0.04, 0.88, -35.14, -64.89, -98.00
11209, -0.35, -0.07, 0.84, -51.24, -84.98, -99.33
11210, -0.17, -0.11, 0.99, -66.15, -40.53, -102.97
11211, -0.13, -0.22, 1.00, -57.96, -26.74, -124.25
11212, -0.09, -0.29, 0.94, -36.82, -23.94, -115.57
11213, -0.09, -0.25, 0.96, -1.75, -13.72, -106.40
11214, -0.14, -0.19, 0.85, 0.07, -2.17, -119.28
11215, -0.22, -0.31, 0.88, -23.66, -21.56, -131.39
11216, -0.19, -0.49, 0.86, -5.95, -27.58, -114.31
11217, -0.20, -0.42, 0.94, 24.85, -21.07, -60.20
11218, -0.08, -0.28, 0.94, 16.31, -10.57, -27.37
11219, -0.00, -0.22, 1.06, -21.98, 10.15, -23.87
11220, -0.06, -0.25, 0.95, -45.85, 29.33, -15.75
11221, -0.25, -0.58, 1.12, -46.41, 0.42, -29.54
11222, -0.24, -0.74, 1.05, 53.34, -33.60, -18.55
11223, -0.15, -0.62, 1.04, 120.61, -38.85, 3.22
11224, -0.03, -0.36, 0.95, 104.23, 1.75, 43.40
11225, -0.11, -0.28, 0.84, 113.12, 17.99, 47.39
11226, -0.05, -0.25, 1.02, 115.08, -2.80, 40.60
11227, -0.05, -0.09, 1.07, 53.83, 44.94, 30.66
11228, -0.12, -0.04, 0.98, 26.53, 45.36, 25.76
11229, -0.10, -0.05, 0.99, 24.99, 21.35, 21.84
11230, 0.00, -0.05, 1.00, 18.13, 27.79, 25.34
11231, 0.03, 0.01, 1.03, 7.70, 48.86, 36.12
11232, -0.09, 0.08, 0.92, -0.91, 55.93, 61.95
11233, -0.25, 0.02, 0.88, -2.24, 23.31, 76.16
11234, -0.34, -0.06, 0.92, -5.53, -10.50, 68.88
11235, -0.32, -0.06, 0.90, -15.47, -19.04, 44.52
11236, -0.25, -0.08, 0.96, -31.50, -16.52, 30.73
11237, -0.15, -0.03, 1.03, -43.12, 7.91, 28.63
11238, -0.17, 0.00, 1.05, -58.10, 48.16, 33.04
11239, -0.39, -0.09, 1.19, -55.09, 71.33, 24.92
11240, -0.61, -0.10, 1.01, -56.63, 11.76, 12.88
11241, -0.54, -0.10, 1.07, -45.22, -48.86, -21.49
11242, -0.32, -0.15, 1.00, -48.72, -65.38, -79.66
11243, -0.20, -0.28, 0.87, -45.50, -68.04, -88.69
11244, -0.01, -0.29, 0.96, -40.88, -51.94, -69.37
11245, -0.10, -0.31, 1.03, -30.24, 2.59, -66.92
11246, -0.14, -0.27, 0.99, -4.76, 12.74, -74.48
11247, -0.12, -0.23, 0.96, 6.23, -6.02, -87.99
11248, -0.06, -0.15, 0.94, 0.70, -2.59, -95.90
11249, -0.04, -0.10, 0.94, -15.61, 7.14, -100.73
11250, -0.10, -0.12, 0.80, -23.52, 5.46, -113.19
11251, -0.14, -0.32, 0.92, -7.14, -26.88, -126.84
11252, -0.11, -0.40, 0.90, 1.61, -15.96, -101.15
11253, 0.01, -0.41, 0.95, 18.69, 1.61, -60.06
11254, 0.03, -0.36, 1.08, 8.89, 33.60, -35.35
11255, 0.02, -0.31, 0.98, -20.23, 71.75, -8.82
11256, -0.12, -0.41, 1.08, -29.33, 74.06, -0.91
11257, -0.22, -0.63, 1.19, 24.22, 36.12, -1.26
11258, -0.19, -0.59, 1.03, 69.44, 6.02, 19.11
11259, -0.18, -0.42, 0.93, 66.71, 17.01, 64.33
11260, -0.19, -0.37, 0.74, 108.15, 45.99, 77.21
11261, -0.10, -0.35, 0.97, 106.75, 32.41, 80.22
11262, -0.12, -0.16, 1.01, 77.77, 66.43, 100.17
11263, -0.23, -0.04, 0.95, 49.91, 63.14, 95.90
11264, -0.28, 0.01, 0.93, 34.02, 30.03, 69.65
11265, -0.19, 0.01, 0.95, 26.25, 14.21, 60.34
11266, -0.12, 0.06, 0.98, 13.16, 22.75, 52.99
11267, -0.14, 0.12, 1.00, -11.13, 24.57, 47.11
11268, -0.25, 0.05, 0.83, -23.03, 8.12, 53.06
11269, -0.31, -0.07, 0.88, -11.06, -14.77, 59.85
11270, -0.38, -0.04, 0.87, -16.94, -14.56, 60.34
11271, -0.32, -0.02, 0.97, -23.10, -12.81, 48.02
11272, -0.31, 0.06, 1.09, -34.44, 19.53, 43.96
11273, -0.40, -0.02, 1.11, -58.17, 69.37, 5.74
11274, -0.63, -0.09, 1.07, -61.60, 44.45, -20.44
11275, -0.63, -0.11, 1.02, -42.28, -16.10, -48.93
11276, -0.51, -0.13, 0.98, -43.47, -64.19, -82.39
11277, -0.33, -0.23, 0.84, -59.57, -102.90, -104.65
11278, -0.30, -0.16, 0.86, -81.27, -95.20, -86.80
11279, -0.21, -0.26, 1.08, -60.55, -35.91, -86.80
11280, -0.12, -0.29, 0.99, -46.27, -14.35, -96.32
11281, -0.13, -0.32, 0.93, -8.96, -15.26, -92.68
11282, -0.08, -0.20, 0.89, 11.13, -11.41, -88.13
11283, -0.05, -0.12, 0.96, -2.66, 1.40, -100.66
11284, -0.09, -0.18, 0.91, -17.57, 13.30, -116.76
11285, -0.13, -0.35, 0.85, -15.68, 1.89, -117.95
11286, -0.14, -0.48, 0.82, 1.40, 8.40, -92.54
11287, -0.16, -0.44, 0.87, 30.38, 25.27, -54.60
11288, -0.06, -0.37, 1.06, 17.78, 32.62, -41.86
11289, -0.05, -0.33, 1.01, -8.12, 61.39, -25.69
11290, -0.17, -0.37, 1.08, -26.74, 67.06, -17.50
11291, -0.29, -0.61, 1.11, 9.87, 27.44, -9.87
11292, -0.27, -0.66, 0.99, 70.14, 0.84, 21.56
11293, -0.26, -0.49, 1.01, 59.43, -5.32, 59.01
11294, -0.22, -0.33, 0.85, 83.58, 11.83, 88.48
11295, -0.19, -0.36, 0.77, 106.05, 19.53, 71.61
11296, -0.09, -0.32, 1.00, 86.10, 27.44, 79.45
11297, -0.19, -0.14, 0.99, 62.86, 67.90, 103.88
11298, -0.28, -0.04, 0.92, 49.21, 53.13, 100.10
11299, -0.29, 0.02, 0.90, 39.83, 24.50, 83.16
11300, -0.20, 0.06, 0.98, 36.61, 16.52, 67.76
11301, -0.18, 0.08, 1.03, 12.53, 18.69, 61.11
11302, -0.25, 0.00, 0.91, -3.43, 14.77, 69.02
11303, -0.37, -0.02, 0.86, 11.90, 8.33, 76.86
11304, -0.40, -0.03, 0.86, 3.01, 2.10, 52.57
11305, -0.39, 0.06, 0.95, -15.26, 3.36, 39.83
11306, -0.35, 0.08, 1.02, -33.32, 21.49, 28.56
11307, -0.34, 0.03, 0.94, -48.65, 55.58, 4.55
11308, -0.47, -0.12, 1.08, -56.49, 79.66, -10.85
11309, -0.67, -0.06, 1.02, -59.43, 25.48, -12.46
11310, -0.64, -0.04, 0.96, -42.84, -11.13, -31.92
11311, -0.59, -0.06, 0.97, -42.63, -59.01, -63.63
11312, -0.47, -0.15, 0.89, -45.15, -87.50, -78.40
11313, -0.36, -0.18, 0.74, -52.71, -89.60, -67.83
11314, -0.30, -0.23, 0.94, -50.61, -76.23, -59.64
11315, -0.27, -0.22, 1.01, -37.52, -30.38, -54.74
11316, -0.23, -0.23, 0.94, -19.39, -15.05, -56.21
11317, -0.23, -0.19, 0.93, 1.89, -20.51, -57.40
11318, -0.18, -0.11, 0.95, -1.47, -22.54, -51.94
11319, -0.14, -0.09, 0.99, -25.27, -12.04, -48.93
11320, -0.13, -0.14, 0.93, -33.95, 0.14, -49.49
11321, -0.25, -0.24, 0.84, -32.27, -7.42, -53.62
11322, -0.25, -0.37, 0.87, -20.23, -19.53, -52.08
11323, -0.37, -0.37, 0.89, -10.85, -14.49, -41.30
11324, -0.21, -0.29, 0.94, -2.80, -3.43, -40.25
11325, -0.13, -0.25, 0.98, -27.65, 18.27, -44.31
11326, -0.06, -0.30, 0.97, -63.00, 36.26, -39.90
11327, -0.17, -0.40, 0.95, -66.22, 59.29, -18.34
11328, -0.30, -0.73, 1.14, -20.86, 41.65, -21.70
11329, -0.31, -0.67, 0.96, 60.83, 34.79, 26.88
11330, -0.36, -0.60, 1.01, 72.94, 16.24, 52.15
11331, -0.37, -0.48, 0.99, 78.61, 14.77, 83.65
11332, -0.35, -0.37, 0.85, 74.06, 2.66, 95.34
11333, -0.36, -0.25, 0.66, 83.58, -6.51, 80.22
11334, -0.34, -0.33, 0.82, 93.87, -38.50, 68.11
11335, -0.35, -0.17, 0.94, 61.95, -38.85, 78.33
11336, -0.32, -0.08, 0.98, 13.23, -43.61, 66.71
11337, -0.26, -0.12, 0.97, -10.08, -61.04, 53.76
11338, -0.13, -0.12, 1.02, -11.13, -72.31, 60.62
11339, -0.09, -0.07, 1.11, 1.33, -66.22, 62.65
11340, -0.14, -0.08, 0.92, -12.04, -59.22, 51.73
11341, -0.15, -0.16, 0.89, -21.28, -71.89, 39.76
11342, -0.08, -0.31, 0.91, -4.20, -68.18, 23.31
11343, -0.02, -0.44, 0.99, 15.26, -4.27, 7.14
11344, -0.16, -0.37, 1.04, 21.63, 72.80, -3.43
11345, -0.61, 0.04, 1.21, 18.34, 73.08, 23.31
11346, -0.47, -0.04, 0.93, -28.84, 1.19, -15.47
11347, -0.31, -0.13, 1.02, -38.92, 8.75, -9.31
11348, -0.29, -0.18, 0.91, -32.06, 0.49, -5.81
11349, -0.26, -0.18, 0.94, -24.29, -10.57, -8.89
11350, -0.20, -0.18, 0.96, -13.30, -11.90, -14.56
11351, -0.16, -0.21, 0.98, -5.53, -2.73, -13.30
11352, -0.19, -0.18, 0.97, -1.33, 7.35, -13.58
11353, -0.22, -0.15, 1.00, -5.74, 4.13, -20.09
11354, -0.20, -0.18, 0.94, -7.28, 2.94, -29.12
11355, -0.21, -0.16, 0.95, -5.32, 5.32, -36.82
11356, -0.20, -0.14, 0.96, -8.19, -3.92, -55.79
11357, -0.20, -0.18, 0.99, -0.42, -3.71, -66.92
