t,ax,ay,az,gx,gy,gz
8823, -0.09, -0.24, 0.89, -9.17, 0.42, -75.88
8824, -0.06, -0.22, 0.94, -20.86, -17.71, -86.94
8825, 0.11, -0.39, 0.87, -66.99, -27.65, -71.40
8826, 0.18, -0.55, 0.93, -59.92, -0.77, -50.96
8827, 0.16, -0.80, 1.00, -42.07, 28.91, -19.25
8828, 0.13, -0.95, 1.09, 64.40, 50.82, -1.47
8829, -0.01, -0.62, 0.98, 102.13, 67.97, 34.58
8830, -0.12, -0.39, 0.98, 95.13, 59.36, 50.54
8831, -0.12, -0.32, 0.84, 99.26, 33.88, 54.04
8832, -0.13, -0.22, 0.88, 104.65, 34.02, 58.38
8833, -0.10, -0.14, 1.00, 64.96, 27.16, 79.31
8834, -0.15, -0.07, 0.94, 35.07, 12.74, 90.16
8835, -0.08, -0.10, 0.97, 19.11, -15.89, 87.15
8836, 0.02, -0.06, 1.00, 4.13, -14.91, 83.09
8837, 0.09, -0.10, 1.03, -4.41, 0.63, 77.35
8838, 0.02, -0.11, 0.93, 3.50, 6.30, 89.81
8839, -0.09, -0.17, 0.91, 3.71, -7.35, 91.63
8840, -0.13, -0.10, 0.95, 15.12, -8.61, 79.87
8841, -0.08, -0.06, 0.93, 7.77, -0.77, 35.91
8842, -0.13, 0.02, 1.05, -9.31, 20.30, 49.35
8843, -0.19, -0.02, 1.02, -52.71, 39.20, 26.25
8844, -0.24, -0.25, 1.35, -75.04, 74.90, -0.56
8845, -0.50, -0.25, 1.17, -39.90, 19.18, -15.33
8846, -0.51, -0.13, 1.03, -38.92, -23.31, -39.13
8847, -0.31, -0.28, 0.87, -56.42, -71.40, -62.30
8848, -0.24, -0.27, 0.94, -59.85, -71.61, -53.20
8849, -0.11, -0.32, 1.06, -49.21, -33.67, -57.61
8850, -0.05, -0.35, 0.93, -44.24, -14.70, -64.68
8851, -0.02, -0.32, 0.93, -18.34, -38.78, -66.99
8852, 0.06, -0.23, 0.92, -11.83, -33.53, -61.88
8853, 0.08, -0.19, 0.95, -20.37, -3.71, -59.71
8854, 0.01, -0.17, 0.77, -10.15, 23.17, -68.39
8855, -0.15, -0.36, 0.87, -4.06, -22.19, -95.13
8856, -0.14, -0.39, 0.90, 14.21, -33.67, -77.07
8857, -0.01, -0.41, 0.98, 22.05, -12.46, -45.92
8858, 0.07, -0.35, 1.07, -7.42, 35.21, -13.44
8859, 0.09, -0.41, 1.00, -59.99, 67.06, 19.46
8860, -0.01, -0.65, 1.20, -14.21, 80.43, 25.20
8861, -0.24, -0.74, 0.97, 62.44, 31.29, 31.85
8862, -0.36, -0.60, 1.00, 97.65, 5.46, 66.78
8863, -0.16, -0.50, 0.76, 97.93, 3.15, 83.30
8864, -0.10, -0.36, 0.84, 106.40, 25.48, 95.20
8865, -0.12, -0.14, 1.00, 67.13, 16.03, 96.67
8866, -0.14, -0.09, 1.02, 22.33, 4.76, 87.36
8867, -0.09, -0.07, 0.93, 4.06, -23.38, 79.80
8868, -0.02, -0.08, 0.93, -6.30, -28.42, 81.27
8869, -0.00, -0.13, 0.95, -3.99, -18.83, 89.67
8870, -0.09, -0.23, 0.91, 10.78, -21.91, 103.67
8871, -0.16, -0.15, 0.94, 31.78, -24.36, 113.40
8872, -0.12, -0.05, 0.98, 13.16, -30.45, 88.69
8873, -0.11, 0.05, 1.08, -0.84, 2.38, 75.53
8874, -0.13, -0.03, 1.06, -50.33, 37.94, 42.98
8875, -0.13, -0.16, 1.12, -67.62, 76.23, 15.89
8876, -0.46, -0.27, 1.14, -53.83, 61.25, -2.52
8877, -0.47, -0.18, 1.03, -53.41, 3.64, -30.66
8878, -0.42, -0.21, 0.98, -57.96, -45.85, -58.59
8879, -0.27, -0.23, 0.87, -67.76, -84.56, -68.18
8880, -0.14, -0.32, 0.94, -65.73, -65.17, -68.60
8881, -0.06, -0.35, 0.99, -38.29, -32.41, -81.90
8882, -0.03, -0.33, 0.93, -25.20, -30.31, -86.10
8883, 0.04, -0.30, 0.94, -20.65, -32.13, -83.37
8884, 0.13, -0.27, 0.97, -24.43, -15.89, -70.49
8885, 0.17, -0.25, 0.95, -27.23, 19.60, -67.27
8886, 0.05, -0.25, 0.85, -3.43, 29.54, -90.23
8887, -0.09, -0.36, 0.84, -6.79, -2.10, -92.96
8888, -0.03, -0.43, 0.85, 13.58, 9.38, -60.41
8889, 0.08, -0.51, 1.02, 4.90, 24.71, -49.28
8890, 0.11, -0.51, 1.01, -17.99, 63.21, -14.63
8891, 0.03, -0.62, 1.15, -2.17, 86.38, 7.84
8892, -0.13, -0.70, 1.08, 81.48, 54.39, 30.38
8893, -0.23, -0.57, 0.99, 94.08, 12.39, 43.26
8894, -0.24, -0.37, 0.93, 119.14, 36.26, 85.89
8895, -0.16, -0.27, 0.77, 127.96, 45.01, 86.03
8896, -0.08, -0.20, 0.98, 84.70, 35.63, 70.63
8897, -0.11, -0.06, 0.99, 53.41, 53.06, 72.59
8898, -0.17, -0.00, 0.97, 24.22, 22.19, 73.22
8899, -0.08, 0.03, 0.94, 4.41, -8.47, 65.03
8900, 0.02, -0.03, 1.02, -4.90, 2.45, 62.65
8901, -0.07, -0.06, 0.89, 4.76, 17.92, 84.42
8902, -0.24, -0.09, 0.90, 9.10, 0.70, 96.04
8903, -0.28, -0.01, 0.91, -7.21, -23.10, 80.92
8904, -0.25, 0.02, 1.00, -14.00, -23.31, 61.18
8905, -0.19, 0.03, 1.11, -64.05, 15.75, 18.06
8906, -0.24, -0.12, 1.22, -86.80, 86.52, -11.20
8907, -0.49, -0.20, 1.19, -71.61, 51.03, -24.01
8908, -0.53, -0.18, 0.99, -63.42, -15.26, -56.35
8909, -0.44, -0.25, 0.77, -73.64, -77.28, -81.83
8910, -0.35, -0.20, 0.92, -75.67, -79.87, -77.91
8911, -0.21, -0.23, 1.05, -87.50, -42.56, -91.91
8912, -0.07, -0.32, 0.94, -64.82, -40.18, -105.56
8913, 0.04, -0.36, 0.92, -29.61, -37.10, -87.78
8914, 0.09, -0.28, 0.89, -12.25, -28.42, -70.84
8915, 0.10, -0.24, 0.86, -2.24, 9.10, -65.59
8916, -0.05, -0.29, 0.76, 3.01, -1.61, -72.17
8917, -0.12, -0.43, 0.89, 27.79, -12.46, -73.01
8918, -0.01, -0.44, 0.99, 54.11, -12.53, -55.30
8919, 0.08, -0.45, 1.14, 36.40, 32.41, -26.25
8920, 0.06, -0.43, 1.10, -0.98, 87.01, 26.53
8921, -0.11, -0.61, 1.26, 44.45, 79.38, 38.08
8922, -0.34, -0.53, 1.01, 102.97, 30.87, 68.11
8923, -0.37, -0.36, 0.92, 131.53, 24.43, 101.85
8924, -0.15, -0.30, 0.81, 110.25, 43.89, 91.98
8925, -0.13, -0.20, 0.96, 61.32, 55.93, 78.26
8926, -0.20, -0.06, 0.94, 42.07, 71.33, 84.49
8927, -0.23, -0.12, 0.90, 21.84, 36.54, 82.11
8928, -0.16, 0.03, 0.89, -1.68, -5.18, 64.61
8929, -0.08, 0.01, 0.93, -16.52, -11.55, 56.84
8930, -0.10, -0.01, 0.85, -8.68, -6.16, 68.18
8931, -0.20, -0.11, 0.84, 14.91, -18.48, 89.25
8932, -0.29, 0.01, 0.90, 7.56, -44.59, 86.66
8933, -0.27, 0.10, 1.11, -12.11, -33.04, 61.32
8934, -0.24, 0.12, 1.11, -76.30, 18.83, 8.75
8935, -0.39, -0.11, 1.27, -98.91, 81.27, -24.01
8936, -0.58, -0.17, 1.18, -86.94, 17.36, -50.75
8937, -0.50, -0.30, 0.90, -83.58, -58.66, -80.78
8938, -0.43, -0.25, 0.82, -83.51, -85.68, -73.92
8939, -0.34, -0.28, 1.02, -85.26, -58.80, -73.78
8940, -0.15, -0.30, 0.93, -72.87, -32.34, -93.73
8941, -0.09, -0.38, 0.92, -40.88, -33.46, -96.18
8942, 0.03, -0.32, 0.90, -16.94, -29.75, -84.35
8943, 0.10, -0.26, 0.92, -13.37, -4.20, -63.77
8944, 0.11, -0.24, 0.89, -12.18, 22.54, -48.16
8945, 0.04, -0.25, 0.75, 4.48, 26.81, -55.37
8946, -0.09, -0.31, 0.88, 21.91, 10.78, -58.24
8947, -0.05, -0.40, 0.87, 32.48, 13.58, -66.92
8948, -0.03, -0.49, 1.09, 31.22, 35.98, -46.20
8949, -0.10, -0.52, 1.11, 9.52, 75.32, 5.53
8950, -0.22, -0.68, 1.20, 46.83, 58.73, 24.36
8951, -0.29, -0.59, 1.04, 108.57, 15.75, 64.61
8952, -0.41, -0.37, 0.90, 137.48, 9.31, 110.39
8953, -0.22, -0.33, 0.78, 125.09, 26.95, 96.88
8954, -0.18, -0.21, 0.99, 73.08, 38.08, 79.73
8955, -0.24, -0.05, 0.97, 38.15, 52.15, 81.48
8956, -0.27, 0.02, 0.92, 15.61, 21.28, 74.20
8957, -0.18, 0.04, 0.91, -7.56, -19.18, 60.06
8958, -0.03, 0.02, 0.94, -21.98, -1.61, 53.97
8959, -0.02, 0.01, 0.92, -24.01, -0.77, 58.94
8960, -0.12, -0.07, 0.87, 2.52, -2.17, 78.33
8961, -0.21, -0.10, 0.89, 17.36, -24.78, 89.18
8962, -0.28, 0.07, 0.95, 10.08, -22.33, 77.00
8963, -0.32, 0.14, 1.12, -22.82, 3.78, 47.25
8964, -0.29, 0.05, 1.10, -88.27, 51.45, -4.55
8965, -0.49, -0.16, 1.25, -92.47, 75.25, -28.70
8966, -0.61, -0.18, 1.04, -70.42, -7.00, -49.35
8967, -0.48, -0.30, 0.82, -75.53, -80.57, -73.43
8968, -0.43, -0.17, 0.86, -97.23, -104.37, -66.78
8969, -0.24, -0.28, 1.01, -89.81, -51.03, -86.10
8970, -0.14, -0.37, 0.97, -70.91, -31.01, -96.11
8971, -0.07, -0.42, 0.95, -28.35, -28.00, -79.52
8972, 0.00, -0.31, 0.89, 2.66, -18.90, -61.11
8973, 0.04, -0.20, 0.95, -2.59, 4.83, -43.75
8974, 0.08, -0.18, 0.93, -12.60, 21.91, -43.54
8975, 0.01, -0.20, 0.79, 2.52, 30.80, -58.03
8976, -0.13, -0.30, 0.85, 1.89, 7.63, -65.52
8977, -0.11, -0.40, 0.88, 17.01, 17.01, -55.02
8978, -0.06, -0.42, 1.03, 19.60, 22.96, -44.45
8979, -0.07, -0.46, 1.05, 0.35, 59.43, -14.77
8980, -0.20, -0.65, 1.28, 13.58, 57.68, 1.47
8981, -0.21, -0.69, 1.01, 88.06, 18.20, 42.28
8982, -0.37, -0.50, 1.02, 122.22, 10.15, 93.38
8983, -0.29, -0.32, 0.77, 124.53, 19.39, 108.64
8984, -0.15, -0.26, 0.94, 93.24, 37.38, 88.55
8985, -0.20, -0.11, 0.96, 43.19, 47.18, 86.52
8986, -0.25, 0.01, 0.96, 21.14, 30.66, 85.40
8987, -0.21, 0.03, 0.95, -7.77, -9.10, 65.73
8988, -0.09, 0.02, 0.93, -29.19, -17.50, 58.24
8989, -0.07, -0.01, 0.90, -29.54, -5.60, 69.30
8990, -0.16, -0.10, 0.79, -2.38, -8.54, 93.10
8991, -0.30, -0.06, 0.88, 3.43, -46.34, 99.68
8992, -0.31, 0.04, 0.92, 10.50, -47.74, 92.54
8993, -0.28, 0.11, 1.18, -34.79, -19.46, 39.83
8994, -0.17, 0.05, 1.11, -86.31, 41.65, -4.20
8995, -0.37, -0.18, 1.29, -91.63, 88.76, -36.61
8996, -0.52, -0.23, 1.02, -65.87, 10.85, -56.00
8997, -0.48, -0.31, 0.88, -80.22, -70.70, -70.35
8998, -0.39, -0.19, 0.86, -87.78, -70.91, -66.29
8999, -0.26, -0.26, 0.98, -91.14, -32.90, -84.42
9000, -0.16, -0.34, 0.95, -68.53, -29.82, -103.25
9001, -0.04, -0.41, 0.90, -33.60, -26.18, -87.36
9002, 0.02, -0.31, 0.89, -11.62, -17.71, -64.82
9003, 0.06, -0.21, 0.88, -12.60, 6.93, -49.28
9004, 0.02, -0.23, 0.72, -3.01, 21.77, -57.75
9005, -0.13, -0.27, 0.79, 22.54, 0.42, -66.85
9006, -0.03, -0.44, 0.92, 24.08, -1.19, -69.02
9007, 0.00, -0.58, 1.11, 31.99, 36.40, -38.85
9008, -0.06, -0.60, 1.20, 20.58, 89.39, 17.78
9009, -0.25, -0.73, 1.32, 103.46, 74.48, 49.21
9010, -0.33, -0.57, 0.96, 138.46, 20.37, 87.43
9011, -0.38, -0.38, 0.85, 140.91, 31.71, 111.23
9012, -0.24, -0.26, 0.88, 83.02, 64.68, 89.60
9013, -0.28, -0.16, 0.85, 40.39, 71.47, 87.50
9014, -0.36, -0.06, 0.89, 29.61, 37.73, 97.93
9015, -0.33, -0.00, 0.86, -2.24, -5.53, 82.74
9016, -0.19, -0.01, 0.90, -22.40, -36.26, 60.90
9017, -0.08, 0.05, 0.93, -37.73, -34.79, 46.83
9018, -0.08, 0.05, 0.93, -43.82, -31.01, 47.74
9019, -0.13, -0.06, 0.83, -5.60, -33.67, 72.80
9020, -0.21, -0.04, 0.92, -1.54, -49.84, 82.60
9021, -0.29, 0.06, 1.04, -9.17, -34.93, 75.25
9022, -0.29, 0.09, 1.07, -62.58, 7.84, 26.95
9023, -0.36, -0.14, 1.31, -97.23, 74.69, -25.48
9024, -0.58, -0.27, 1.12, -85.12, 21.91, -64.54
9025, -0.46, -0.51, 0.87, -83.30, -68.11, -97.02
9026, -0.48, -0.28, 0.95, -91.63, -84.07, -64.54
9027, -0.24, -0.38, 1.05, -82.39, -28.77, -79.52
9028, -0.11, -0.39, 0.91, -59.71, -3.50, -98.42
9029, -0.05, -0.41, 0.85, -21.00, -16.10, -96.32
9030, -0.01, -0.31, 0.86, 5.46, -10.78, -84.35
9031, 0.04, -0.24, 0.88, 6.23, 11.13, -68.60
9032, 0.04, -0.22, 0.85, 7.91, 29.05, -61.04
9033, -0.07, -0.25, 0.75, 14.84, 16.66, -72.17
9034, -0.06, -0.37, 0.80, 26.39, 8.47, -65.94
9035, 0.01, -0.53, 1.09, 29.75, 21.21, -53.97
9036, 0.03, -0.55, 1.05, 16.31, 72.66, -9.45
9037, -0.20, -0.68, 1.35, 20.58, 84.70, 17.36
9038, -0.27, -0.73, 1.06, 127.96, 38.29, 57.61
9039, -0.43, -0.47, 0.92, 149.66, 14.42, 96.74
9040, -0.29, -0.34, 0.78, 131.32, 54.25, 89.67
9041, -0.24, -0.27, 0.91, 59.50, 58.52, 71.40
9042, -0.32, -0.10, 0.87, 41.51, 59.78, 78.61
9043, -0.32, -0.05, 0.89, 24.92, 16.66, 71.26
9044, -0.21, -0.02, 0.88, 4.06, -21.14, 54.95
9045, -0.07, 0.03, 0.95, -10.36, -24.29, 41.58
9046, -0.06, 0.07, 0.95, -23.03, -9.80, 36.26
9047, -0.08, 0.02, 0.81, -0.98, -8.89, 49.07
9048, -0.21, -0.05, 0.88, 6.16, -27.16, 71.54
9049, -0.29, 0.03, 0.99, 15.33, -21.00, 77.07
9050, -0.37, 0.14, 1.11, -37.45, 12.67, 27.02
9051, -0.44, -0.03, 1.32, -102.34, 62.72, -38.50
9052, -0.65, -0.17, 1.19, -109.62, 11.20, -85.05
9053, -0.57, -0.36, 0.91, -83.51, -66.08, -114.80
9054, -0.49, -0.28, 0.86, -105.35, -106.75, -95.76
9055, -0.25, -0.35, 0.95, -102.90, -60.34, -109.48
9056, -0.14, -0.40, 0.91, -84.00, -35.98, -121.73
9057, -0.08, -0.46, 0.92, -43.68, -33.11, -114.66
9058, 0.01, -0.38, 0.89, 1.82, -29.12, -102.62
9059, 0.08, -0.30, 0.90, 16.17, -4.48, -77.07
9060, 0.12, -0.26, 0.87, 15.05, 16.66, -65.59
9061, 0.05, -0.25, 0.69, 30.80, 24.15, -79.31
9062, -0.08, -0.28, 0.92, 60.97, 12.60, -80.08
9063, 0.03, -0.37, 1.02, 32.06, -6.30, -83.86
9064, 0.10, -0.55, 1.10, 25.69, 46.55, -39.20
9065, 0.02, -0.49, 1.12, 4.90, 97.16, 10.64
9066, -0.22, -0.66, 1.26, 43.82, 86.73, 35.77
9067, -0.24, -0.53, 1.03, 122.57, 36.12, 56.28
9068, -0.27, -0.41, 0.85, 146.86, 38.43, 84.77
9069, -0.17, -0.26, 0.93, 123.41, 80.78, 76.02
9070, -0.17, -0.17, 0.93, 68.74, 88.34, 73.01
9071, -0.26, -0.04, 0.88, 39.41, 77.91, 75.18
9072, -0.27, 0.04, 0.85, 21.56, 25.69, 62.37
9073, -0.17, 0.08, 0.89, -4.69, -12.88, 41.23
9074, -0.12, 0.09, 0.90, -23.87, -9.80, 38.22
9075, -0.22, -0.02, 0.80, -7.28, -22.68, 65.24
9076, -0.31, 0.01, 0.86, -3.57, -60.27, 76.79
9077, -0.32, 0.07, 1.00, -19.46, -63.98, 66.08
9078, -0.29, 0.18, 1.18, -67.83, -23.17, 5.74
9079, -0.26, 0.00, 1.27, -125.16, 53.97, -43.61
9080, -0.47, -0.23, 1.19, -109.97, 22.26, -87.50
9081, -0.48, -0.38, 0.85, -96.60, -44.59, -119.07
9082, -0.47, -0.37, 0.91, -127.12, -102.27, -95.06
9083, -0.22, -0.29, 1.01, -100.45, -43.54, -94.29
9084, -0.12, -0.38, 0.92, -89.32, -19.53, -121.10
9085, -0.05, -0.46, 0.88, -46.48, -19.81, -113.82
9086, 0.06, -0.40, 0.85, -10.01, -12.67, -91.91
9087, 0.11, -0.32, 0.92, 3.01, 11.83, -64.61
9088, 0.08, -0.25, 0.68, 17.64, 32.69, -66.22
9089, -0.09, -0.29, 0.77, 49.35, 15.40, -64.96
9090, -0.02, -0.42, 0.95, 30.45, -12.11, -75.18
9091, 0.07, -0.63, 1.12, 48.72, 45.78, -35.21
9092, -0.01, -0.67, 1.31, 32.41, 95.41, 11.55
9093, -0.18, -0.74, 1.25, 150.99, 69.65, 59.99
9094, -0.37, -0.54, 0.98, 147.14, 25.69, 95.62
9095, -0.32, -0.36, 0.83, 147.56, 50.33, 109.34
9096, -0.16, -0.25, 0.91, 87.57, 93.03, 78.75
9097, -0.30, -0.11, 0.87, 60.55, 106.33, 84.91
9098, -0.35, -0.03, 0.83, 35.35, 63.07, 86.45
9099, -0.30, 0.07, 0.86, 9.87, 1.26, 74.06
9100, -0.16, 0.11, 0.92, -18.27, -17.01, 49.84
9101, -0.13, 0.11, 0.86, -33.39, -21.14, 43.33
9102, -0.19, -0.04, 0.82, -12.95, -45.29, 63.91
9103, -0.29, 0.00, 0.92, -4.13, -55.23, 82.18
9104, -0.30, 0.05, 1.13, -26.46, -43.75, 59.57
9105, -0.28, 0.11, 1.15, -83.30, 8.40, -11.20
9106, -0.45, -0.11, 1.31, -117.04, 58.94, -61.53
9107, -0.56, -0.23, 1.08, -104.93, -15.05, -106.96
9108, -0.47, -0.43, 0.84, -95.20, -79.66, -122.50
9109, -0.33, -0.31, 0.87, -95.62, -61.46, -107.59
9110, -0.19, -0.39, 0.98, -98.28, -26.53, -123.55
9111, -0.13, -0.40, 0.87, -63.91, -8.47, -124.88
9112, -0.06, -0.44, 0.82, -29.47, -14.00, -116.62
9113, 0.01, -0.35, 0.84, 11.62, -9.80, -103.53
9114, 0.04, -0.31, 0.93, 14.21, 7.91, -83.16
9115, 0.03, -0.26, 0.71, 28.00, 28.84, -81.76
9116, -0.12, -0.33, 0.82, 42.56, 7.21, -78.54
9117, 0.01, -0.47, 0.96, 44.66, 9.24, -73.15
9118, 0.11, -0.56, 1.23, 51.80, 45.99, -39.41
9119, 0.02, -0.54, 1.18, 13.30, 105.63, 4.06
9120, -0.23, -0.73, 1.36, 96.46, 92.54, 28.70
9121, -0.29, -0.56, 0.90, 148.05, 28.84, 77.77
9122, -0.36, -0.33, 0.80, 152.53, 49.00, 82.74
9123, -0.26, -0.31, 0.78, 165.13, 70.98, 82.88
9124, -0.22, -0.23, 0.97, 74.55, 63.42, 61.32
9125, -0.32, 0.07, 0.93, 17.29, 65.59, 56.49
9126, -0.36, 0.11, 0.87, -4.76, 14.07, 41.93
9127, -0.22, 0.03, 0.81, -8.19, -38.01, 28.28
9128, -0.13, -0.14, 0.76, 11.48, -30.38, 44.66
9129, -0.28, -0.16, 0.86, 44.31, -36.12, 74.76
9130, -0.32, -0.05, 0.92, 28.35, -47.74, 65.87
9131, -0.20, 0.13, 1.06, -9.59, -57.96, 41.02
9132, -0.05, 0.20, 1.16, -54.95, 0.14, -0.56
9133, -0.07, 0.08, 1.13, -94.64, 61.04, -31.50
9134, -0.47, -0.09, 1.29, -82.46, 81.41, -60.76
9135, -0.52, -0.13, 0.93, -71.47, -0.21, -94.36
9136, -0.44, -0.29, 0.82, -75.39, -60.97, -122.71
9137, -0.31, -0.13, 0.96, -70.77, -52.29, -116.62
9138, -0.19, -0.12, 0.99, -84.77, -12.39, -128.94
9139, -0.12, -0.25, 0.92, -72.94, -16.24, -141.96
9140, -0.04, -0.35, 0.92, -45.29, -28.28, -133.35
9141, 0.03, -0.33, 0.79, -5.74, -4.41, -123.48
9142, -0.13, -0.43, 0.76, -6.30, -9.31, -134.47
9143, -0.24, -0.56, 0.80, 12.67, -32.90, -126.42
9144, -0.11, -0.51, 0.91, 75.18, -19.46, -72.80
9145, 0.12, -0.35, 1.20, 68.11, 29.61, -49.00
9146, 0.24, -0.25, 1.07, -9.66, 97.23, -16.03
9147, -0.04, -0.36, 1.12, -41.65, 109.06, 1.40
9148, -0.36, -0.73, 1.25, 47.95, 61.81, 19.32
9149, -0.45, -0.58, 0.93, 133.49, -14.35, 60.55
9150, -0.28, -0.46, 0.78, 155.68, 24.57, 79.80
9151, -0.08, -0.40, 0.96, 112.14, 54.04, 76.16
9152, -0.18, -0.12, 0.97, 62.93, 80.99, 84.77
9153, -0.27, 0.02, 0.91, 35.56, 60.13, 90.65
9154, -0.26, 0.07, 0.89, 9.59, 14.70, 70.00
9155, -0.17, 0.05, 0.91, 3.29, 3.36, 59.01
9156, -0.12, 0.06, 0.90, -0.28, 11.27, 55.30
9157, -0.37, 0.00, 0.80, 3.08, 5.95, 68.88
9158, -0.39, -0.05, 0.85, 7.07, -34.72, 67.34
9159, -0.40, -0.00, 0.95, -6.37, -53.20, 57.82
9160, -0.26, 0.05, 1.15, -45.36, -33.18, 18.69
9161, -0.15, 0.02, 1.11, -94.22, 33.04, -19.88
9162, -0.41, -0.10, 1.34, -85.33, 89.18, -45.22
9163, -0.62, -0.09, 1.03, -66.08, 4.83, -73.57
9164, -0.53, -0.24, 0.79, -65.59, -67.20, -101.36
9165, -0.44, -0.20, 0.85, -106.40, -104.72, -97.79
9166, -0.30, -0.18, 1.02, -98.00, -45.78, -110.67
9167, -0.14, -0.33, 0.95, -93.03, -24.43, -134.47
9168, -0.05, -0.43, 0.92, -43.26, -18.76, -115.43
9169, -0.01, -0.34, 0.90, 0.56, -11.48, -94.57
9170, 0.04, -0.24, 0.93, -4.06, 8.05, -74.06
9171, 0.03, -0.24, 0.77, -7.70, 34.79, -75.60
9172, -0.12, -0.38, 0.74, 3.43, 5.74, -79.52
9173, -0.15, -0.49, 0.82, 31.01, 1.96, -71.12
9174, -0.08, -0.49, 1.04, 53.27, 9.59, -59.57
9175, 0.06, -0.49, 1.13, 32.27, 60.13, -14.63
9176, -0.08, -0.50, 1.25, 6.93, 95.83, 21.98
9177, -0.28, -0.67, 1.24, 77.42, 63.63, 55.23
9178, -0.40, -0.46, 0.92, 115.50, 10.92, 87.36
9179, -0.35, -0.38, 0.85, 135.73, 27.16, 110.53
9180, -0.19, -0.27, 0.86, 119.98, 58.94, 100.66
9181, -0.16, -0.18, 0.93, 67.76, 80.36, 87.43
9182, -0.29, -0.01, 0.90, 32.90, 83.02, 91.84
9183, -0.31, 0.07, 0.83, 8.05, 31.50, 74.69
9184, -0.23, 0.07, 0.86, -9.94, -11.27, 61.18
9185, -0.15, 0.05, 0.90, -16.80, -18.06, 56.56
9186, -0.21, -0.03, 0.82, -9.03, -21.77, 72.24
9187, -0.35, -0.05, 0.88, -2.10, -39.83, 87.71
9188, -0.38, 0.09, 0.94, -9.94, -48.65, 72.17
9189, -0.31, 0.15, 1.18, -50.82, -29.40, 25.13
9190, -0.23, 0.08, 1.13, -98.21, 41.30, -24.78
9191, -0.53, -0.15, 1.31, -87.85, 69.79, -58.31
9192, -0.65, -0.22, 0.98, -71.54, -26.46, -89.18
9193, -0.55, -0.32, 0.81, -80.36, -97.37, -106.96
9194, -0.45, -0.16, 0.93, -96.95, -86.59, -91.07
9195, -0.26, -0.26, 0.98, -95.34, -22.47, -101.29
9196, -0.15, -0.34, 0.91, -73.15, -12.11, -122.08
9197, -0.08, -0.42, 0.85, -23.24, -19.25, -109.27
9198, -0.02, -0.30, 0.87, 12.18, -15.33, -89.60
9199, 0.01, -0.22, 0.92, -1.61, 14.70, -68.46
9200, -0.02, -0.21, 0.76, -2.52, 24.78, -72.94
9201, -0.14, -0.36, 0.75, 3.64, 1.19, -82.18
9202, -0.16, -0.50, 0.84, 21.91, -5.25, -75.81
9203, -0.04, -0.57, 1.16, 54.25, 23.24, -48.44
9204, 0.03, -0.42, 1.08, 26.67, 79.38, -3.29
9205, -0.16, -0.49, 1.25, 0.91, 99.82, 20.23
9206, -0.35, -0.69, 1.19, 101.50, 50.75, 50.61
9207, -0.40, -0.46, 0.91, 122.43, -1.40, 97.58
9208, -0.34, -0.38, 0.83, 138.46, 27.30, 112.49
9209, -0.19, -0.27, 0.89, 121.59, 68.25, 101.71
9210, -0.21, -0.14, 0.94, 50.89, 91.07, 95.62
9211, -0.34, 0.02, 0.88, 28.49, 82.53, 107.66
9212, -0.36, 0.07, 0.83, 4.06, 22.33, 90.86
9213, -0.24, 0.06, 0.86, -3.01, -8.54, 76.58
9214, -0.20, 0.08, 0.92, -14.00, -5.46, 72.24
9215, -0.25, 0.04, 0.78, -11.34, -7.35, 81.83
9216, -0.37, -0.02, 0.83, -7.00, -33.18, 83.79
9217, -0.43, 0.07, 0.89, -8.47, -39.27, 70.21
9218, -0.38, 0.18, 1.15, -39.20, -27.86, 20.79
9219, -0.30, 0.13, 1.24, -92.75, 39.76, -22.26
9220, -0.62, -0.10, 1.34, -102.06, 65.94, -55.79
9221, -0.68, -0.16, 0.93, -83.30, -28.00, -81.62
9222, -0.61, -0.26, 0.82, -81.62, -106.12, -99.12
9223, -0.47, -0.00, 0.82, -110.95, -94.36, -102.55
9224, -0.32, -0.25, 0.97, -104.86, -43.75, -121.10
9225, -0.16, -0.37, 0.88, -88.20, -33.04, -137.06
9226, -0.07, -0.46, 0.83, -36.82, -26.18, -118.37
9227, 0.00, -0.36, 0.84, 0.14, -25.69, -94.15
9228, 0.05, -0.28, 0.91, -7.77, -1.89, -77.07
9229, -0.00, -0.30, 0.78, -3.22, 19.95, -82.04
9230, -0.16, -0.41, 0.76, 4.41, -3.64, -96.25
9231, -0.17, -0.45, 0.80, 36.61, 5.81, -75.74
9232, -0.07, -0.49, 1.10, 39.69, 22.54, -64.96
9233, 0.03, -0.47, 1.09, 8.96, 79.73, -11.55
9234, -0.14, -0.64, 1.30, -5.74, 94.57, 15.05
9235, -0.31, -0.75, 1.08, 101.78, 50.33, 48.86
9236, -0.45, -0.60, 0.94, 145.95, -7.91, 99.05
9237, -0.28, -0.41, 0.72, 149.73, 29.68, 113.82
9238, -0.15, -0.35, 0.87, 116.76, 58.31, 96.67
9239, -0.23, -0.17, 0.91, 65.87, 73.99, 87.01
9240, -0.31, -0.04, 0.91, 42.63, 53.83, 89.88
9241, -0.30, 0.03, 0.90, 22.26, 16.24, 80.92
9242, -0.19, 0.04, 0.92, 9.38, -1.75, 75.18
9243, -0.15, 0.06, 0.85, 2.73, 8.61, 73.71
9244, -0.27, -0.01, 0.84, 15.05, -0.14, 80.78
9245, -0.39, -0.02, 0.88, 12.18, -25.06, 80.08
9246, -0.40, 0.05, 0.97, -3.01, -29.26, 66.92
9247, -0.31, 0.09, 1.10, -39.27, -8.12, 23.94
9248, -0.35, 0.01, 1.26, -83.16, 53.13, -18.06
9249, -0.64, -0.08, 1.20, -89.60, 33.11, -40.04
9250, -0.68, -0.07, 0.93, -63.77, -30.10, -77.77
9251, -0.54, -0.20, 0.81, -63.84, -93.73, -109.27
9252, -0.41, -0.17, 0.86, -72.03, -87.29, -98.28
9253, -0.27, -0.16, 1.00, -89.81, -50.89, -102.55
9254, -0.14, -0.26, 0.91, -78.26, -31.36, -112.84
9255, -0.11, -0.34, 0.93, -37.66, -28.56, -94.50
9256, -0.04, -0.26, 0.93, -13.44, -17.92, -80.15
9257, 0.02, -0.20, 0.92, -10.22, 4.83, -68.81
9258, -0.03, -0.23, 0.79, -10.22, 24.43, -78.96
9259, -0.10, -0.38, 0.77, -15.96, -1.05, -76.51
9260, -0.15, -0.45, 0.86, 21.77, 10.50, -64.05
9261, -0.11, -0.45, 1.06, 35.21, 12.18, -59.85
9262, -0.05, -0.42, 1.09, 15.75, 73.36, -27.79
9263, -0.20, -0.53, 1.16, -10.36, 100.80, 2.24
9264, -0.35, -0.67, 1.15, 81.41, 74.76, 32.97
9265, -0.44, -0.49, 0.95, 127.54, 18.34, 66.50
9266, -0.44, -0.35, 0.89, 125.93, 26.88, 106.47
9267, -0.28, -0.29, 0.71, 118.02, 50.61, 108.57
9268, -0.25, -0.17, 0.93, 83.30, 49.98, 96.39
9269, -0.30, -0.02, 0.93, 49.70, 66.71, 96.81
9270, -0.36, 0.07, 0.91, 33.32, 42.14, 82.53
9271, -0.30, 0.10, 0.90, 6.93, -5.74, 57.40
9272, -0.16, 0.06, 0.97, -3.50, -7.21, 48.51
9273, -0.17, 0.05, 0.83, -4.48, 11.48, 61.11
9274, -0.35, -0.03, 0.88, 10.36, -9.66, 82.60
9275, -0.42, 0.06, 0.87, -7.84, -26.53, 72.38
9276, -0.42, 0.15, 0.95, -34.16, -25.48, 47.11
9277, -0.36, 0.12, 1.04, -55.72, 2.10, -4.69
9278, -0.53, -0.01, 1.21, -77.56, 67.97, -19.81
9279, -0.73, -0.07, 1.09, -92.82, 0.63, -39.34
9280, -0.68, -0.11, 0.92, -69.44, -67.20, -57.82
9281, -0.52, -0.19, 0.78, -77.07, -115.78, -81.83
9282, -0.42, -0.16, 0.80, -73.78, -96.11, -82.81
9283, -0.31, -0.17, 1.04, -83.65, -64.61, -88.48
9284, -0.18, -0.37, 0.98, -73.64, -32.48, -86.38
9285, -0.13, -0.31, 0.95, -33.39, -32.90, -82.81
9286, -0.05, -0.24, 0.96, -11.27, -29.61, -78.68
9287, 0.01, -0.18, 0.96, -21.70, -6.02, -74.27
9288, 0.05, -0.20, 0.94, -24.29, 11.34, -72.03
9289, -0.02, -0.25, 0.81, -11.41, 21.77, -84.42
9290, -0.15, -0.32, 0.88, 3.92, 16.45, -72.80
9291, -0.12, -0.42, 0.88, 13.72, 19.60, -65.87
9292, -0.16, -0.41, 1.02, 30.38, 43.19, -52.01
9293, -0.22, -0.44, 1.10, 10.64, 55.02, -31.71
9294, -0.32, -0.65, 1.19, 46.97, 49.70, -9.45
9295, -0.24, -0.70, 0.99, 105.07, 27.44, 30.03
9296, -0.38, -0.51, 0.94, 89.81, 13.30, 78.68
9297, -0.36, -0.29, 0.82, 111.93, 9.52, 112.91
9298, -0.26, -0.23, 0.76, 113.26, 20.16, 103.32
9299, -0.19, -0.11, 1.04, 79.80, 28.98, 92.19
9300, -0.26, 0.05, 1.01, 39.20, 59.99, 84.70
9301, -0.32, 0.07, 0.96, 23.52, 28.77, 70.63
9302, -0.26, 0.02, 0.97, 5.04, -11.69, 59.15
9303, -0.14, -0.01, 0.99, -2.31, -9.94, 58.38
9304, -0.12, 0.03, 0.96, -5.88, 2.94, 66.43
9305, -0.17, 0.04, 0.89, -1.75, 9.94, 75.39
9306, -0.29, -0.01, 0.92, 12.11, 6.44, 77.56
9307, -0.36, 0.04, 0.92, -1.26, -5.74, 62.30
9308, -0.36, 0.07, 0.96, -5.81, 0.07, 47.60
9309, -0.34, 0.04, 0.97, -22.82, 21.70, 28.77
9310, -0.42, -0.05, 1.08, -44.80, 63.77, 9.73
9311, -0.61, -0.04, 1.02, -52.50, 46.69, 4.34
