t,ax,ay,az,gx,gy,gz
25554, 0.52, -0.54, 0.62, -61.46, -13.30, -84.63
25555, 0.58, -0.65, 0.62, -67.41, 0.63, -74.41
25556, 0.54, -0.69, 0.53, -83.65, 14.28, -60.06
25557, 0.43, -0.77, 0.49, -71.47, 25.97, -63.63
25558, 0.36, -0.86, 0.46, -76.79, -18.13, -52.22
25559, 0.53, -0.76, 0.33, -33.04, -19.18, -34.79
25560, 0.54, -0.86, 0.35, -19.81, 12.04, -0.35
25561, 0.44, -0.88, 0.46, 3.92, 16.73, 30.45
25562, 0.57, -0.92, 0.30, -18.76, 3.29, -13.79
25563, 0.67, -1.04, 0.49, -19.60, 47.60, -15.05
25564, 0.54, -1.09, 0.40, 10.71, 32.83, -5.60
25565, 0.46, -0.95, 0.39, -18.41, 17.57, -3.85
25566, 0.33, -0.80, 0.34, 9.38, -1.54, -4.48
25567, 0.31, -0.75, 0.30, 38.01, -13.93, 9.38
25568, 0.38, -0.78, 0.32, 18.90, -34.09, 11.69
25569, 0.49, -0.76, 0.43, 13.58, -32.20, 23.03
25570, 0.36, -0.52, 0.51, 44.66, -0.07, 45.29
25571, 0.66, -0.75, 0.38, -39.83, -47.53, 21.63
25572, 0.68, -0.92, 0.38, -9.10, -0.77, 43.54
25573, 0.58, -0.76, 0.41, 63.91, -1.61, 75.60
25574, 0.56, -0.61, 0.49, 67.90, -3.43, 80.85
25575, 0.52, -0.56, 0.46, 64.19, -4.55, 81.13
25576, 0.47, -0.65, 0.52, 64.47, 1.26, 75.18
25577, 0.31, -0.70, 0.45, 51.17, 13.51, 73.50
25578, 0.20, -0.71, 0.49, 51.52, -5.46, 97.65
25579, 0.27, -0.59, 0.55, 31.08, -0.84, 110.18
25580, 0.38, -0.65, 0.70, -26.46, -13.23, 68.46
25581, 0.36, -1.03, 0.74, -48.51, 19.53, 12.04
25582, 0.01, -0.94, 0.69, -22.33, 0.07, -16.38
25583, 0.18, -0.93, 0.58, -42.56, -14.00, -37.94
25584, -0.01, -0.99, 0.48, -32.90, -11.20, -52.50
25585, 0.32, -0.94, 0.55, -20.44, -79.52, -68.67
25586, 0.36, -1.00, 0.60, 0.21, -8.96, -47.74
25587, 0.33, -0.90, 0.53, 4.13, 7.84, -33.81
25588, 0.34, -0.73, 0.56, 35.07, 1.96, -44.24
25589, 0.34, -0.64, 0.55, 46.48, 10.36, -45.64
25590, 0.36, -0.47, 0.39, 31.50, -21.35, -62.09
25591, 0.39, -0.54, 0.57, 8.82, -40.60, -65.66
25592, 0.48, -0.59, 0.64, -13.16, -40.74, -56.07
25593, 0.56, -0.64, 0.56, -27.23, -28.35, -29.26
25594, 0.53, -0.59, 0.56, -36.75, -10.92, -31.08
25595, 0.46, -0.63, 0.53, -36.05, -29.75, -48.02
25596, 0.48, -0.75, 0.46, -16.80, -9.80, -30.17
25597, 0.42, -0.85, 0.32, -12.25, -1.54, 10.15
25598, 0.39, -0.96, 0.57, 25.20, -5.60, 42.00
25599, 0.61, -1.00, 0.41, -35.21, -17.36, 1.89
25600, 0.64, -1.19, 0.53, 13.16, 8.68, 3.57
25601, 0.40, -1.13, 0.39, 47.67, -21.84, 26.53
25602, 0.31, -0.82, 0.46, 70.28, -43.33, 41.86
25603, 0.29, -0.65, 0.42, 72.24, -59.36, 30.73
25604, 0.34, -0.72, 0.38, 47.25, -72.59, 31.29
25605, 0.46, -0.77, 0.44, 19.67, -73.22, 38.85
25606, 0.53, -0.75, 0.44, 25.20, -48.86, 57.89
25607, 0.58, -0.70, 0.40, 32.83, -41.30, 73.43
25608, 0.63, -0.67, 0.45, 48.09, -23.73, 78.75
25609, 0.65, -0.64, 0.48, 66.15, -11.20, 83.30
25610, 0.55, -0.59, 0.53, 78.33, -14.70, 88.69
25611, 0.48, -0.57, 0.55, 69.58, -14.28, 78.47
25612, 0.32, -0.64, 0.61, 57.47, 0.35, 65.73
25613, 0.19, -0.59, 0.54, 61.81, 1.68, 83.93
25614, 0.21, -0.52, 0.59, 20.58, 0.21, 97.23
25615, 0.32, -0.58, 0.74, -32.83, 6.58, 84.21
25616, 0.49, -0.87, 0.67, -63.00, 13.65, 53.55
25617, 0.11, -1.05, 0.79, -36.26, 27.09, -7.28
25618, 0.17, -0.91, 0.61, -58.03, -12.04, -27.65
25619, 0.22, -0.99, 0.53, -64.33, -13.93, -41.51
25620, 0.12, -1.05, 0.55, -16.45, -59.57, -51.17
25621, 0.25, -0.86, 0.60, 8.33, -40.88, -53.76
25622, 0.36, -0.88, 0.50, -15.68, 12.25, -50.89
25623, 0.37, -0.81, 0.58, 4.76, 24.64, -41.93
25624, 0.36, -0.70, 0.52, 23.31, 7.49, -55.72
25625, 0.35, -0.59, 0.47, 25.13, 6.16, -51.17
25626, 0.40, -0.54, 0.41, 10.64, -34.30, -67.69
25627, 0.44, -0.56, 0.58, -0.77, -48.51, -62.51
25628, 0.54, -0.60, 0.56, -27.93, -42.56, -44.38
25629, 0.56, -0.60, 0.52, -24.85, -30.17, -24.36
25630, 0.45, -0.59, 0.66, -42.35, -48.86, -50.33
25631, 0.52, -0.67, 0.36, -14.28, -11.34, -44.94
25632, 0.41, -0.86, 0.32, -10.43, -8.40, -14.07
25633, 0.44, -0.99, 0.55, 33.39, -12.67, 24.29
25634, 0.75, -1.18, 0.34, -72.03, -5.95, -17.36
25635, 0.61, -1.36, 0.50, 23.73, 24.43, 5.25
25636, 0.38, -1.12, 0.38, 36.54, -8.61, 47.46
25637, 0.35, -0.77, 0.43, 61.95, -12.60, 49.35
25638, 0.33, -0.73, 0.35, 51.38, -28.70, 42.84
25639, 0.35, -0.71, 0.37, 31.08, -42.07, 43.12
25640, 0.46, -0.74, 0.42, 19.11, -31.78, 50.82
25641, 0.53, -0.72, 0.34, 29.05, -21.56, 64.68
25642, 0.60, -0.70, 0.42, 42.07, -18.62, 72.59
25643, 0.62, -0.68, 0.45, 51.17, -13.86, 85.96
25644, 0.54, -0.59, 0.49, 80.22, -5.04, 93.94
25645, 0.48, -0.52, 0.55, 65.38, -5.39, 90.37
25646, 0.39, -0.69, 0.56, 42.49, 5.25, 80.50
25647, 0.17, -0.66, 0.45, 44.80, 7.07, 102.76
25648, 0.21, -0.65, 0.58, 27.02, 4.55, 102.48
25649, 0.36, -0.69, 0.71, -23.80, -6.72, 59.36
25650, 0.31, -0.95, 0.78, -43.26, 2.03, 20.65
25651, 0.12, -0.92, 0.72, -33.74, 3.78, -28.91
25652, 0.15, -0.85, 0.61, -62.72, -11.76, -42.49
25653, 0.14, -0.93, 0.51, -70.84, -20.30, -63.98
25654, 0.25, -1.00, 0.49, -41.72, -68.46, -91.14
25655, 0.26, -0.97, 0.56, -7.98, -35.98, -69.09
25656, 0.32, -0.91, 0.53, -15.75, 12.95, -46.20
25657, 0.36, -0.76, 0.51, 12.74, 5.53, -59.15
25658, 0.40, -0.72, 0.53, 27.72, -2.03, -69.65
25659, 0.41, -0.66, 0.48, 24.29, 7.49, -53.06
25660, 0.47, -0.54, 0.43, 13.72, -34.44, -71.26
25661, 0.48, -0.59, 0.62, -10.50, -47.18, -65.10
25662, 0.59, -0.61, 0.51, -41.02, -39.76, -39.48
25663, 0.53, -0.63, 0.69, -41.79, -57.12, -33.39
25664, 0.60, -0.52, 0.43, -40.46, -3.99, -37.31
25665, 0.45, -0.80, 0.32, -32.90, 7.98, -18.34
25666, 0.39, -0.91, 0.44, -7.98, 2.94, 21.56
25667, 0.70, -0.97, 0.31, -58.24, -9.87, -24.85
25668, 0.77, -1.35, 0.41, -51.73, 26.11, -21.77
25669, 0.45, -1.25, 0.23, 39.55, -2.52, 40.39
25670, 0.37, -0.86, 0.35, 57.12, -12.39, 50.82
25671, 0.31, -0.68, 0.34, 59.50, -23.73, 36.54
25672, 0.35, -0.73, 0.33, 41.72, -38.85, 28.49
25673, 0.41, -0.74, 0.34, 22.19, -42.84, 29.47
25674, 0.50, -0.78, 0.38, 24.43, -29.61, 43.96
25675, 0.55, -0.76, 0.35, 32.34, -17.29, 61.95
25676, 0.60, -0.71, 0.36, 45.01, -4.83, 72.10
25677, 0.63, -0.71, 0.40, 51.31, -8.26, 74.69
25678, 0.60, -0.65, 0.48, 64.61, -4.20, 82.11
25679, 0.51, -0.53, 0.47, 67.13, -4.06, 87.78
25680, 0.53, -0.64, 0.56, 53.48, -0.98, 91.91
25681, 0.35, -0.77, 0.55, 53.90, 14.28, 92.47
25682, 0.17, -0.69, 0.50, 54.46, -7.00, 121.31
25683, 0.22, -0.54, 0.58, 33.46, -14.07, 115.15
25684, 0.28, -0.52, 0.71, -29.96, -14.98, 59.08
25685, 0.37, -1.14, 0.76, -56.49, 39.13, -3.78
25686, -0.07, -1.00, 0.58, -34.72, -15.33, -29.33
25687, 0.18, -0.96, 0.57, -65.03, -21.91, -42.63
25688, 0.03, -1.05, 0.52, -36.19, -42.42, -57.54
25689, 0.24, -0.97, 0.52, 4.83, -38.64, -62.16
25690, 0.35, -0.96, 0.52, -7.70, -11.27, -65.73
25691, 0.36, -0.83, 0.53, 5.39, 10.43, -62.72
25692, 0.35, -0.68, 0.53, 27.58, -1.12, -71.54
25693, 0.35, -0.62, 0.50, 31.50, -3.43, -76.79
25694, 0.36, -0.54, 0.43, 15.68, -14.84, -69.51
25695, 0.41, -0.51, 0.51, -16.24, -54.74, -89.60
25696, 0.55, -0.59, 0.57, -32.06, -58.17, -70.70
25697, 0.62, -0.65, 0.52, -58.66, -32.41, -45.36
25698, 0.51, -0.70, 0.52, -58.73, -28.98, -48.44
25699, 0.52, -0.72, 0.48, -38.71, -36.68, -40.60
25700, 0.55, -0.82, 0.31, -22.89, 4.76, -20.51
25701, 0.48, -0.88, 0.36, -17.85, 18.06, 31.01
25702, 0.61, -1.02, 0.43, -15.96, 15.61, -1.96
25703, 0.83, -1.21, 0.26, -93.66, 39.90, -22.26
25704, 0.48, -1.37, 0.25, 47.39, 7.49, 23.24
25705, 0.39, -0.92, 0.38, 49.21, -12.18, 43.82
25706, 0.35, -0.76, 0.32, 66.92, -25.41, 31.15
25707, 0.40, -0.77, 0.37, 51.24, -37.87, 30.80
25708, 0.44, -0.66, 0.37, 27.44, -35.42, 38.15
25709, 0.51, -0.69, 0.38, 21.42, -28.63, 46.97
25710, 0.56, -0.68, 0.34, 20.30, -21.28, 63.42
25711, 0.59, -0.68, 0.36, 34.93, -14.63, 70.63
25712, 0.61, -0.67, 0.39, 43.96, -1.68, 71.68
25713, 0.58, -0.60, 0.46, 68.81, 3.57, 82.04
25714, 0.54, -0.59, 0.51, 68.39, 4.27, 79.59
25715, 0.39, -0.63, 0.54, 68.60, 17.78, 66.78
25716, 0.17, -0.68, 0.49, 57.26, 13.86, 89.88
25717, 0.26, -0.57, 0.57, 38.50, -3.78, 110.95
25718, 0.32, -0.55, 0.69, -29.26, -13.58, 54.39
25719, 0.44, -1.03, 0.69, -59.50, 12.18, 2.52
25720, 0.10, -0.99, 0.62, -47.11, -11.48, -38.15
25721, 0.09, -1.08, 0.53, -59.22, -9.94, -33.88
25722, 0.25, -0.95, 0.45, -2.03, -43.68, -55.16
25723, 0.34, -1.10, 0.55, -25.83, -25.41, -68.25
25724, 0.41, -0.89, 0.45, -6.51, 23.87, -43.40
25725, 0.36, -0.79, 0.50, 18.83, 12.53, -50.47
25726, 0.35, -0.64, 0.55, 30.73, 10.36, -58.24
25727, 0.36, -0.59, 0.47, 37.80, 23.52, -50.68
25728, 0.37, -0.51, 0.39, 18.06, -34.93, -67.90
25729, 0.43, -0.51, 0.52, -6.58, -53.27, -61.81
25730, 0.56, -0.57, 0.53, -24.71, -45.78, -43.96
25731, 0.61, -0.60, 0.54, -36.47, -23.80, -43.68
25732, 0.46, -0.67, 0.57, -52.36, -39.76, -67.90
25733, 0.50, -0.72, 0.35, -2.03, -23.17, -57.96
25734, 0.49, -0.94, 0.31, -8.89, -6.16, -16.66
25735, 0.46, -0.89, 0.43, 12.88, 6.44, 56.07
25736, 0.64, -0.96, 0.52, -6.51, 8.82, 15.26
25737, 0.82, -1.20, 0.44, -73.01, 34.72, -3.78
25738, 0.53, -1.23, 0.36, 10.01, 13.86, 22.12
25739, 0.38, -0.82, 0.37, 8.40, -1.89, 29.33
25740, 0.30, -0.80, 0.30, 48.79, -31.22, 20.09
25741, 0.29, -0.80, 0.37, 47.53, -57.82, 26.81
25742, 0.42, -0.73, 0.39, 25.76, -61.18, 35.70
25743, 0.49, -0.73, 0.39, 24.29, -46.76, 51.87
25744, 0.53, -0.71, 0.31, 31.78, -40.18, 67.13
25745, 0.61, -0.70, 0.35, 45.71, -29.54, 78.68
25746, 0.65, -0.68, 0.41, 62.79, -24.15, 84.70
25747, 0.58, -0.59, 0.49, 80.99, -20.65, 91.91
25748, 0.51, -0.55, 0.51, 66.78, -22.89, 93.66
25749, 0.46, -0.63, 0.59, 55.72, -3.78, 83.16
25750, 0.24, -0.64, 0.54, 52.85, 2.10, 94.71
25751, 0.21, -0.58, 0.57, 43.61, -7.42, 115.71
25752, 0.26, -0.50, 0.70, -4.13, -3.92, 88.62
25753, 0.45, -0.86, 0.60, -70.21, 4.13, 42.14
25754, 0.07, -1.16, 0.74, -47.39, 13.65, -23.24
25755, 0.17, -0.99, 0.55, -53.69, -14.00, -35.00
25756, 0.19, -1.15, 0.46, -68.11, -41.23, -56.28
25757, 0.28, -0.91, 0.43, 14.21, -46.90, -64.12
25758, 0.22, -0.93, 0.55, -12.67, 1.47, -69.09
25759, 0.53, -0.86, 0.50, -27.79, 18.34, -70.42
25760, 0.48, -0.82, 0.40, -3.71, 18.55, -77.77
25761, 0.35, -0.71, 0.44, 20.51, 11.20, -68.67
25762, 0.37, -0.63, 0.39, 31.85, 26.53, -47.74
25763, 0.43, -0.53, 0.38, -1.05, -28.28, -70.49
25764, 0.52, -0.60, 0.60, -3.92, -24.92, -56.14
25765, 0.59, -0.61, 0.48, -34.23, -10.71, -36.40
25766, 0.58, -0.56, 0.43, -33.04, 6.86, -36.89
25767, 0.44, -0.62, 0.52, -39.48, -18.55, -70.14
25768, 0.48, -0.82, 0.32, -15.47, -13.37, -58.73
25769, 0.50, -0.94, 0.25, -13.09, -0.35, -14.00
25770, 0.49, -1.01, 0.58, 49.63, 12.18, 34.09
25771, 0.80, -1.09, 0.26, -81.97, 12.67, -15.68
25772, 0.61, -1.29, 0.45, 36.40, 35.49, 15.40
25773, 0.45, -1.03, 0.47, 23.31, 5.32, 29.89
25774, 0.36, -0.72, 0.32, 17.22, -0.28, 17.78
25775, 0.34, -0.82, 0.26, 42.63, -26.18, 24.22
25776, 0.38, -0.73, 0.39, 16.10, -42.98, 26.18
25777, 0.51, -0.71, 0.38, 6.65, -27.65, 36.54
25778, 0.56, -0.72, 0.34, 8.54, -14.00, 50.12
25779, 0.58, -0.71, 0.34, 29.33, -4.90, 66.64
25780, 0.63, -0.68, 0.39, 47.18, 6.23, 73.64
25781, 0.58, -0.61, 0.46, 68.67, 12.88, 81.20
25782, 0.52, -0.52, 0.44, 57.47, 9.59, 86.45
25783, 0.47, -0.58, 0.61, 49.49, 13.79, 78.82
25784, 0.28, -0.62, 0.45, 40.39, 32.48, 72.80
25785, 0.19, -0.67, 0.56, 34.23, 8.75, 90.86
25786, 0.26, -0.60, 0.64, 1.54, 10.50, 76.58
25787, 0.44, -0.90, 0.57, -63.91, 3.50, 25.83
25788, 0.17, -1.06, 0.74, -52.36, 15.89, -38.29
25789, 0.17, -1.07, 0.54, -71.75, 6.09, -36.26
25790, 0.12, -1.14, 0.43, -36.89, -14.14, -56.56
25791, 0.25, -0.91, 0.53, 1.82, -35.84, -71.26
25792, 0.35, -0.97, 0.46, -49.21, 7.21, -79.45
25793, 0.36, -0.91, 0.44, 0.70, 35.42, -55.72
25794, 0.34, -0.79, 0.48, 11.69, 17.43, -65.17
25795, 0.34, -0.67, 0.49, 24.29, 30.45, -62.02
25796, 0.35, -0.59, 0.40, 20.37, 27.37, -53.48
25797, 0.42, -0.53, 0.48, -3.71, -20.51, -73.50
25798, 0.55, -0.62, 0.60, -20.86, -14.07, -56.42
25799, 0.57, -0.61, 0.45, -27.09, 1.47, -30.66
25800, 0.53, -0.55, 0.43, -47.39, 5.39, -50.96
25801, 0.52, -0.63, 0.42, -29.33, -8.05, -68.95
25802, 0.52, -0.90, 0.25, -29.05, 9.80, -47.46
25803, 0.51, -0.93, 0.31, -16.94, 29.33, 19.25
25804, 0.61, -1.07, 0.52, 26.88, 21.21, -7.00
25805, 0.71, -1.37, 0.41, -54.74, 42.07, -19.53
25806, 0.42, -1.26, 0.45, 17.78, 20.93, 17.64
25807, 0.30, -0.79, 0.45, -7.28, 15.05, 29.26
25808, 0.21, -0.78, 0.33, 39.83, -13.51, 21.63
25809, 0.25, -0.80, 0.35, 21.00, -43.82, 21.56
25810, 0.37, -0.72, 0.40, 6.72, -47.18, 28.35
25811, 0.48, -0.72, 0.38, 3.15, -25.90, 42.77
25812, 0.56, -0.72, 0.34, 13.65, -14.70, 54.67
25813, 0.63, -0.71, 0.40, 26.74, -8.54, 64.68
25814, 0.65, -0.67, 0.47, 50.68, 1.54, 73.64
25815, 0.58, -0.56, 0.49, 58.73, 9.45, 84.70
25816, 0.55, -0.58, 0.55, 40.60, 10.99, 76.79
25817, 0.35, -0.64, 0.50, 46.76, 43.33, 69.79
25818, 0.15, -0.64, 0.46, 46.55, 17.71, 96.32
25819, 0.16, -0.57, 0.64, 8.96, 7.84, 82.11
25820, 0.44, -0.86, 0.54, -67.62, -4.90, 28.21
25821, 0.12, -1.14, 0.78, -55.23, 24.43, -34.44
25822, 0.13, -1.04, 0.53, -73.71, -2.59, -37.73
25823, 0.13, -1.18, 0.42, -46.27, -20.16, -54.46
25824, 0.28, -0.94, 0.41, -3.50, -36.89, -72.73
25825, 0.30, -0.97, 0.43, -37.59, 2.31, -72.10
25826, 0.37, -0.93, 0.45, -5.39, 28.70, -66.85
25827, 0.32, -0.78, 0.46, 11.13, 17.29, -73.15
25828, 0.33, -0.67, 0.44, 27.51, 23.59, -68.25
25829, 0.35, -0.60, 0.42, 23.31, 16.94, -59.92
25830, 0.41, -0.57, 0.51, -3.92, -28.21, -78.05
25831, 0.54, -0.63, 0.56, -26.53, -15.89, -65.31
25832, 0.56, -0.50, 0.45, -29.75, -10.29, -40.46
25833, 0.59, -0.56, 0.39, -36.68, -10.64, -27.79
25834, 0.48, -0.55, 0.61, -60.90, -24.85, -56.77
25835, 0.55, -0.74, 0.25, -29.33, 8.47, -41.93
25836, 0.50, -1.01, 0.20, -33.04, 2.31, 6.86
25837, 0.49, -1.07, 0.53, 38.15, 16.73, 30.66
25838, 0.76, -1.22, 0.25, -83.93, 17.01, -22.47
25839, 0.51, -1.43, 0.37, 53.90, 19.74, 20.58
25840, 0.37, -1.04, 0.49, 23.52, -4.06, 34.51
25841, 0.21, -0.69, 0.30, 48.44, -14.35, 17.43
25842, 0.21, -0.83, 0.31, 55.16, -51.80, 15.40
25843, 0.35, -0.72, 0.37, 31.50, -66.08, 27.44
25844, 0.48, -0.78, 0.38, 25.48, -52.50, 39.90
25845, 0.53, -0.72, 0.32, 39.55, -41.16, 62.23
25846, 0.64, -0.73, 0.35, 49.63, -31.43, 71.75
25847, 0.67, -0.72, 0.42, 69.79, -16.45, 81.62
25848, 0.61, -0.60, 0.50, 90.02, -9.17, 90.86
25849, 0.54, -0.49, 0.51, 71.12, -9.80, 92.47
25850, 0.46, -0.58, 0.56, 56.63, -1.40, 92.47
25851, 0.37, -0.75, 0.59, 56.77, 3.01, 87.22
25852, 0.19, -0.63, 0.51, 65.31, -5.11, 117.39
25853, 0.24, -0.57, 0.59, 46.34, -10.50, 111.86
25854, 0.31, -0.59, 0.67, -7.35, -6.16, 67.90
25855, 0.26, -1.06, 0.81, -24.92, 8.75, -0.14
25856, 0.07, -0.91, 0.64, -31.22, -42.42, -41.44
25857, 0.13, -0.99, 0.59, -59.36, -39.41, -52.15
25858, 0.12, -0.90, 0.56, -1.61, -65.38, -62.44
25859, 0.39, -1.10, 0.60, -24.22, -56.21, -80.36
25860, 0.41, -1.00, 0.50, 0.77, 14.14, -50.82
25861, 0.33, -0.88, 0.36, 96.32, -23.87, -66.01
25862, 0.40, -0.59, 0.78, -38.64, 15.12, -64.68
25863, 0.50, -0.58, 0.44, 30.59, 39.97, -57.33
25864, 0.41, -0.50, 0.40, 2.94, -27.16, -83.79
25865, 0.45, -0.52, 0.59, -11.13, -42.07, -75.25
25866, 0.57, -0.55, 0.59, -33.81, -24.29, -56.42
25867, 0.62, -0.61, 0.55, -44.80, -4.41, -30.52
25868, 0.57, -0.55, 0.47, -63.91, 18.13, -36.75
25869, 0.50, -0.70, 0.55, -46.62, -10.78, -49.00
25870, 0.51, -0.75, 0.36, -44.52, 17.64, -32.48
25871, 0.49, -0.83, 0.30, -51.31, 31.64, 6.37
25872, 0.44, -0.95, 0.62, 19.53, 40.04, 18.76
25873, 0.82, -1.04, 0.28, -148.68, 31.36, -38.92
25874, 0.61, -1.29, 0.39, -1.33, 44.17, -7.49
25875, 0.49, -1.13, 0.42, 17.22, 23.52, 12.95
25876, 0.36, -0.76, 0.37, 34.16, 11.83, 24.01
25877, 0.29, -0.75, 0.34, 34.16, -2.66, 13.86
25878, 0.36, -0.70, 0.30, 5.11, -14.07, 8.47
25879, 0.45, -0.70, 0.43, -12.11, -15.96, 11.27
25880, 0.55, -0.67, 0.39, -9.17, 4.55, 16.17
25881, 0.57, -0.66, 0.39, -4.41, 13.16, 27.58
25882, 0.65, -0.66, 0.46, 5.53, 23.17, 38.29
25883, 0.62, -0.64, 0.47, 21.56, 44.45, 48.23
25884, 0.59, -0.59, 0.47, 32.48, 37.24, 59.57
25885, 0.54, -0.61, 0.46, 28.70, 30.80, 35.49
25886, 0.35, -0.67, 0.41, -1.96, 27.30, 32.06
25887, 0.27, -0.75, 0.45, -13.09, 28.77, 41.09
25888, 0.31, -0.73, 0.49, -22.47, 16.73, 60.97
25889, 0.41, -0.74, 0.58, -44.94, 19.32, 49.00
25890, 0.55, -1.01, 0.57, -62.93, 30.45, 7.14
25891, 0.23, -1.07, 0.59, -56.07, 18.76, -30.24
25892, 0.29, -0.98, 0.43, -57.75, 32.69, -39.20
25893, 0.25, -1.13, 0.37, -24.92, 20.44, -43.40
25894, 0.25, -0.92, 0.37, 18.41, -5.88, -47.39
25895, 0.37, -0.97, 0.58, -17.01, -19.46, -59.85
25896, 0.51, -0.96, 0.44, -6.02, 17.71, -41.58
25897, 0.42, -0.80, 0.35, 35.56, -2.45, -67.20
25898, 0.36, -0.67, 0.45, 38.50, -9.73, -71.54
25899, 0.38, -0.62, 0.52, 31.71, 15.54, -46.27
25900, 0.45, -0.50, 0.43, 6.79, 18.13, -40.11
25901, 0.54, -0.54, 0.55, -23.38, -17.99, -60.34
25902, 0.60, -0.58, 0.46, -35.28, 11.34, -37.03
25903, 0.49, -0.56, 0.39, -42.70, 28.49, -52.78
25904, 0.39, -0.71, 0.51, -56.70, -29.82, -75.39
25905, 0.60, -0.90, 0.24, -20.37, -4.76, -48.58
25906, 0.62, -0.94, 0.23, -25.13, 21.14, 11.69
25907, 0.56, -0.96, 0.51, 18.76, 49.77, 44.24
25908, 0.73, -1.04, 0.22, -66.71, 42.35, -9.87
25909, 0.61, -1.29, 0.49, 47.04, 47.60, 6.72
25910, 0.41, -1.06, 0.53, 9.03, 13.51, 17.85
25911, 0.28, -0.72, 0.37, 17.57, -1.61, 16.45
25912, 0.28, -0.79, 0.35, 40.18, -31.78, 19.81
25913, 0.34, -0.73, 0.37, 9.73, -40.32, 22.82
25914, 0.42, -0.70, 0.41, 4.20, -30.45, 32.83
25915, 0.50, -0.68, 0.36, 7.84, -13.37, 47.74
25916, 0.59, -0.71, 0.39, 20.23, -5.60, 58.59
25917, 0.66, -0.73, 0.44, 36.40, 3.36, 69.16
25918, 0.60, -0.63, 0.49, 62.58, 17.29, 79.24
25919, 0.55, -0.57, 0.49, 63.21, 9.52, 87.15
25920, 0.48, -0.61, 0.56, 46.90, 16.38, 72.87
25921, 0.32, -0.69, 0.51, 39.76, 27.58, 68.46
25922, 0.14, -0.68, 0.49, 28.00, 10.71, 95.76
25923, 0.19, -0.57, 0.65, -6.51, 7.77, 77.14
25924, 0.40, -0.89, 0.57, -70.63, -2.17, 27.16
25925, 0.13, -1.12, 0.80, -56.21, 19.74, -35.35
25926, 0.15, -1.05, 0.55, -75.04, -0.91, -39.69
25927, 0.12, -1.21, 0.43, -48.02, -15.54, -62.58
25928, 0.24, -0.91, 0.43, 10.43, -32.90, -66.29
25929, 0.25, -0.91, 0.47, -22.05, 6.86, -65.94
25930, 0.42, -0.90, 0.48, -19.11, 20.93, -70.70
25931, 0.39, -0.84, 0.45, 0.91, 15.96, -71.82
25932, 0.32, -0.71, 0.47, 20.72, 10.71, -78.33
25933, 0.35, -0.64, 0.45, 31.08, 26.95, -58.87
25934, 0.44, -0.51, 0.38, -0.21, -17.78, -75.11
25935, 0.46, -0.55, 0.56, -22.47, -29.12, -76.30
25936, 0.58, -0.64, 0.50, -42.42, -19.39, -49.84
25937, 0.58, -0.60, 0.44, -28.42, 9.03, -37.24
25938, 0.43, -0.65, 0.59, -59.08, -25.97, -59.99
25939, 0.59, -0.74, 0.26, -30.73, -11.13, -47.11
25940, 0.59, -1.10, 0.15, -36.33, 23.80, -14.98
25941, 0.51, -0.98, 0.46, 17.22, 33.11, 41.86
25942, 0.70, -1.06, 0.22, -67.83, 17.29, -4.90
25943, 0.59, -1.27, 0.49, 35.00, 45.64, 8.54
25944, 0.43, -1.11, 0.47, 24.15, 10.99, 23.10
25945, 0.33, -0.72, 0.42, -0.28, -0.35, 12.67
25946, 0.24, -0.74, 0.31, 37.73, -20.09, 6.30
25947, 0.31, -0.77, 0.32, 8.54, -48.51, 8.89
25948, 0.45, -0.76, 0.40, 0.42, -35.70, 25.48
25949, 0.52, -0.77, 0.38, 7.77, -12.53, 44.45
25950, 0.59, -0.71, 0.35, 35.77, -1.40, 63.77
25951, 0.66, -0.70, 0.39, 36.68, 5.46, 71.61
25952, 0.65, -0.66, 0.49, 53.55, 18.62, 79.80
25953, 0.53, -0.55, 0.46, 64.75, 19.53, 90.72
25954, 0.46, -0.63, 0.54, 50.68, 21.70, 77.49
25955, 0.32, -0.75, 0.48, 42.91, 30.38, 75.95
25956, 0.18, -0.71, 0.47, 39.06, 17.29, 96.88
25957, 0.24, -0.66, 0.59, 9.24, 13.86, 79.24
25958, 0.38, -0.86, 0.63, -40.04, 5.60, 51.24
25959, 0.25, -1.14, 0.72, -29.47, 38.15, -7.42
25960, 0.11, -0.89, 0.55, -39.41, -3.92, -35.91
25961, 0.11, -1.01, 0.52, -70.98, -13.79, -49.56
25962, 0.13, -0.95, 0.46, -8.82, -38.08, -56.07
25963, 0.31, -1.02, 0.56, -26.46, -24.01, -70.00
25964, 0.39, -1.01, 0.51, -13.09, 32.20, -58.10
25965, 0.31, -0.82, 0.50, 11.41, 38.92, -57.96
25966, 0.30, -0.69, 0.52, 24.29, 26.95, -69.30
25967, 0.32, -0.61, 0.45, 30.52, 36.54, -69.72
25968, 0.38, -0.52, 0.38, 14.35, -18.55, -93.38
25969, 0.43, -0.58, 0.58, -4.97, -25.83, -82.74
25970, 0.55, -0.63, 0.55, -41.51, -20.30, -64.61
25971, 0.58, -0.62, 0.48, -29.68, -6.23, -41.79
25972, 0.51, -0.60, 0.46, -39.34, 15.05, -55.02
25973, 0.39, -0.77, 0.51, -52.78, -32.48, -66.78
25974, 0.56, -0.84, 0.30, -19.39, -19.11, -40.53
25975, 0.61, -0.94, 0.27, -30.10, 29.05, 14.84
25976, 0.48, -0.96, 0.58, 19.39, 44.87, 55.23
25977, 0.67, -1.05, 0.27, -61.53, 13.65, 3.99
25978, 0.58, -1.19, 0.48, 39.41, 35.84, 11.55
25979, 0.42, -1.05, 0.54, 13.23, 2.45, 6.79
25980, 0.32, -0.74, 0.47, -2.10, -0.56, -7.00
25981, 0.26, -0.72, 0.28, -0.63, -29.12, -14.56
25982, 0.29, -0.78, 0.32, 14.63, -54.67, 5.74
25983, 0.46, -0.77, 0.43, -5.95, -50.05, 21.98
25984, 0.55, -0.79, 0.40, 1.33, -24.50, 44.17
25985, 0.60, -0.76, 0.36, 19.39, -11.97, 59.92
25986, 0.66, -0.73, 0.39, 40.32, 1.61, 73.64
25987, 0.64, -0.68, 0.45, 62.51, 8.75, 80.64
25988, 0.53, -0.56, 0.49, 78.75, 16.73, 87.64
25989, 0.50, -0.52, 0.51, 67.20, 9.45, 78.12
25990, 0.35, -0.65, 0.52, 48.44, 17.08, 65.59
25991, 0.18, -0.72, 0.50, 29.47, 13.16, 78.89
25992, 0.16, -0.61, 0.47, 24.22, 3.92, 101.64
25993, 0.27, -0.60, 0.65, -24.50, 4.34, 73.15
25994, 0.49, -0.91, 0.61, -70.84, 10.15, 35.56
25995, 0.13, -1.14, 0.78, -41.51, 23.52, -24.85
25996, 0.12, -1.00, 0.55, -52.99, -5.39, -24.92
25997, 0.11, -1.17, 0.49, -43.05, -14.84, -37.52
25998, 0.19, -0.83, 0.46, 29.75, -33.46, -49.56
25999, 0.22, -0.87, 0.55, -9.87, -0.77, -63.35
26000, 0.34, -0.86, 0.50, -19.04, 29.26, -67.13
26001, 0.30, -0.78, 0.51, 2.73, 27.44, -69.16
26002, 0.30, -0.69, 0.48, 16.94, 16.17, -76.02
26003, 0.33, -0.65, 0.44, 20.79, 9.38, -73.85
26004, 0.37, -0.56, 0.45, -1.19, -32.97, -89.11
26005, 0.48, -0.60, 0.59, -11.76, -32.69, -79.24
26006, 0.59, -0.65, 0.56, -36.47, -11.34, -57.19
26007, 0.62, -0.65, 0.45, -30.80, 11.55, -37.73
26008, 0.52, -0.62, 0.40, -43.40, 17.22, -54.74
26009, 0.45, -0.76, 0.43, -26.74, -18.20, -64.26
26010, 0.49, -0.83, 0.34, -17.92, -1.96, -46.83
26011, 0.53, -0.92, 0.31, -20.30, 13.86, 18.55
26012, 0.49, -0.99, 0.61, 22.33, 16.03, 42.98
26013, 0.70, -1.09, 0.32, -78.47, 23.87, -3.36
26014, 0.54, -1.22, 0.42, 38.64, 32.69, 10.85
26015, 0.37, -1.04, 0.51, 3.92, 1.96, 18.76
26016, 0.36, -0.58, 0.40, 26.81, -21.42, 0.91
26017, 0.32, -0.90, 0.28, -10.92, -49.07, -16.94
26018, 0.33, -0.89, 0.29, 9.10, -52.29, 15.19
26019, 0.46, -0.77, 0.39, 17.36, -57.89, 24.36
26020, 0.40, -0.48, 0.52, 61.81, -17.85, 54.53
26021, 0.66, -0.71, 0.35, -46.48, -49.35, 30.45
26022, 0.75, -1.01, 0.23, -14.63, 0.28, 50.61
26023, 0.60, -0.73, 0.34, 71.12, -13.51, 73.22
26024, 0.63, -0.63, 0.57, 74.27, -7.77, 76.93
26025, 0.50, -0.57, 0.47, 65.10, 11.69, 73.57
26026, 0.41, -0.65, 0.48, 62.02, 25.20, 60.90
26027, 0.31, -0.77, 0.47, 40.32, 18.41, 65.59
26028, 0.19, -0.66, 0.48, 40.25, 13.02, 91.07
26029, 0.25, -0.64, 0.56, 4.76, 11.48, 82.95
26030, 0.36, -0.72, 0.59, -28.63, 7.84, 61.46
26031, 0.28, -1.02, 0.60, -30.94, 18.69, 15.82
26032, 0.12, -0.95, 0.61, -11.20, -8.47, -16.52
26033, 0.20, -0.89, 0.59, -25.41, -13.72, -21.63
26034, 0.27, -1.05, 0.49, -44.17, -26.67, -34.09
26035, 0.15, -1.06, 0.45, 19.67, -40.67, -47.11
26036, 0.25, -0.89, 0.56, 28.56, -26.46, -40.67
26037, 0.30, -0.82, 0.53, 18.34, 1.54, -44.45
26038, 0.39, -0.73, 0.52, 5.46, 7.21, -43.82
26039, 0.39, -0.68, 0.49, 3.36, -8.61, -65.66
26040, 0.34, -0.62, 0.51, 16.52, -12.74, -70.98
26041, 0.38, -0.65, 0.50, -2.31, -19.18, -67.69
26042, 0.43, -0.63, 0.51, -25.27, -27.58, -60.41
26043, 0.62, -0.65, 0.51, -30.87, -53.69, -69.02
26044, 0.58, -0.65, 0.48, -31.99, -35.49, -42.00
26045, 0.60, -0.61, 0.51, -33.81, -10.92, -25.62
26046, 0.56, -0.67, 0.43, -42.00, 6.51, -38.08
26047, 0.43, -0.81, 0.62, -59.01, -43.05, -44.03
26048, 0.55, -0.81, 0.33, -4.62, -4.69, -17.29
26049, 0.39, -0.86, 0.33, -14.70, 6.09, 20.30
26050, 0.55, -0.99, 0.47, 2.94, 1.19, 3.64
26051, 0.81, -1.06, 0.31, -123.41, 34.09, -10.29
26052, 0.57, -1.14, 0.33, 15.33, 41.16, 13.72
26053, 0.38, -0.99, 0.28, 63.84, -7.77, 26.60
26054, 0.37, -0.81, 0.33, 59.71, -23.45, 5.04
26055, 0.37, -0.75, 0.30, 46.13, -41.16, -6.16
26056, 0.47, -0.79, 0.31, 32.97, -49.00, -6.02
26057, 0.54, -0.79, 0.32, 24.71, -35.42, 9.94
26058, 0.55, -0.75, 0.37, 26.81, -18.20, 28.49
26059, 0.59, -0.76, 0.33, 17.71, -13.93, 42.70
26060, 0.60, -0.79, 0.32, 28.07, -12.46, 49.35
26061, 0.57, -0.80, 0.34, 46.34, -11.76, 57.89
26062, 0.54, -0.75, 0.26, 53.62, -9.87, 55.30
26063, 0.47, -0.69, 0.44, 65.31, -19.18, 46.76
26064, 0.47, -0.64, 0.43, 52.78, -18.69, 42.28
26065, 0.52, -0.69, 0.47, 33.11, -6.30, 45.57
26066, 0.53, -0.69, 0.39, 41.58, 6.30, 56.49
26067, 0.47, -0.71, 0.40, 58.31, 3.36, 54.74
26068, 0.49, -0.79, 0.46, 51.73, -7.00, 48.09
26069, 0.40, -0.89, 0.58, 37.73, 7.56, 43.68
26070, 0.29, -0.89, 0.63, 22.75, 9.10, 28.42
26071, 0.32, -0.82, 0.59, 15.47, 8.68, 25.20
26072, 0.28, -0.76, 0.55, -2.17, 9.94, 16.73
26073, 0.19, -0.79, 0.56, -11.90, -0.98, 2.80
26074, 0.15, -0.83, 0.56, -3.50, -12.60, 6.86
26075, 0.17, -0.85, 0.53, 12.11, -18.27, 14.28
26076, 0.15, -0.71, 0.67, 29.47, -60.27, 47.18
26077, 0.22, -0.95, 0.54, 43.19, -28.77, 17.92
26078, 0.32, -0.86, 0.56, 23.94, 4.90, 6.58
26079, 0.39, -0.80, 0.56, 1.96, -0.63, 30.59
26080, 0.39, -0.79, 0.55, -11.90, -17.99, 32.83
