t,ax,ay,az,gx,gy,gz
36804, 0.42, -0.83, 0.64, 35.56, 29.19, -35.63
36805, 0.36, -0.55, 0.63, 46.55, 49.14, -15.26
36806, 0.31, -0.40, 0.53, 12.25, 35.49, -23.94
36807, 0.35, -0.36, 0.60, -37.66, -27.30, -55.79
36808, 0.36, -0.41, 0.80, -48.02, -31.78, -55.16
36809, 0.38, -0.48, 0.74, -63.63, -22.26, -60.90
36810, 0.32, -0.66, 0.37, -81.34, -11.90, -61.67
36811, 0.19, -0.88, 0.39, -80.43, -48.02, -34.16
36812, 0.49, -1.04, 0.48, -10.71, -38.85, 8.19
36813, 0.60, -0.97, 0.54, 20.02, 5.04, 33.39
36814, 0.49, -0.91, 0.64, 56.14, 41.86, 52.71
36815, 0.61, -0.89, 0.38, -40.88, 46.76, 7.77
36816, 0.44, -1.06, 0.61, -43.89, 55.09, -0.14
36817, 0.33, -1.03, 0.36, 4.41, 11.34, 22.19
36818, 0.32, -0.88, 0.55, 70.77, -36.19, 26.95
36819, 0.30, -0.66, 0.54, 39.90, -48.79, 5.88
36820, 0.33, -0.77, 0.46, 47.74, -68.18, 8.47
36821, 0.39, -0.75, 0.49, 20.86, -73.08, 19.04
36822, 0.41, -0.75, 0.52, 0.98, -56.42, 30.17
36823, 0.47, -0.72, 0.49, 5.04, -34.30, 45.36
36824, 0.46, -0.71, 0.43, 1.33, -25.76, 51.94
36825, 0.46, -0.69, 0.39, 4.13, -19.67, 57.61
36826, 0.46, -0.68, 0.39, 24.29, -10.78, 69.16
36827, 0.52, -0.65, 0.48, 37.73, -15.47, 73.50
36828, 0.49, -0.60, 0.51, 40.67, -16.59, 77.35
36829, 0.40, -0.61, 0.55, 39.48, -9.87, 69.16
36830, 0.31, -0.65, 0.48, 43.47, 8.19, 68.18
36831, 0.24, -0.67, 0.57, 29.54, 23.10, 65.38
36832, 0.25, -0.63, 0.59, -2.38, 9.45, 70.49
36833, 0.22, -0.71, 0.64, -59.99, -8.75, 48.09
36834, -0.03, -1.09, 0.70, -79.10, -2.59, 23.87
36835, -0.09, -1.14, 0.42, -27.72, -72.03, 36.19
36836, 0.03, -1.10, 0.49, -1.68, -87.29, 45.36
36837, 0.14, -0.98, 0.65, -22.54, -75.74, 37.59
36838, 0.26, -1.00, 0.47, -12.60, -53.27, 10.22
36839, 0.23, -0.94, 0.44, 36.33, -53.62, 8.54
36840, 0.25, -0.85, 0.52, 39.27, -43.82, 2.59
36841, 0.19, -0.79, 0.54, 48.30, -3.29, 10.01
36842, 0.29, -0.79, 0.57, 27.65, -9.03, -8.12
36843, 0.24, -0.70, 0.55, 28.28, -23.59, -24.85
36844, 0.22, -0.62, 0.56, 20.58, -28.98, -26.39
36845, 0.24, -0.57, 0.59, -17.85, -40.18, -26.67
36846, 0.34, -0.58, 0.52, -49.14, -46.20, -35.49
36847, 0.54, -0.59, 0.50, -65.17, -44.87, -56.21
36848, 0.61, -0.69, 0.55, -56.00, -22.82, -63.35
36849, 0.55, -0.74, 0.61, -35.21, 13.79, -70.84
36850, 0.40, -0.79, 0.42, -45.08, 35.35, -68.95
36851, 0.23, -0.90, 0.49, -43.05, -0.35, -55.86
36852, 0.39, -0.86, 0.48, 6.93, 7.21, -32.06
36853, 0.47, -0.91, 0.33, 11.27, 27.37, -7.21
36854, 0.35, -1.00, 0.55, 49.21, 42.49, 34.72
36855, 0.48, -0.96, 0.36, -32.41, 18.55, 1.26
36856, 0.47, -1.08, 0.36, -67.76, 39.55, -4.48
36857, 0.36, -1.15, 0.31, 16.10, 21.21, -1.75
36858, 0.31, -1.10, 0.30, 54.32, 9.45, 20.72
36859, 0.24, -0.87, 0.34, 66.08, -9.73, 18.34
36860, 0.21, -0.78, 0.20, 62.09, -15.68, 19.04
36861, 0.27, -0.82, 0.32, 52.71, -49.63, 24.43
36862, 0.42, -0.74, 0.41, 31.64, -62.51, 32.83
36863, 0.51, -0.75, 0.46, 10.36, -51.52, 41.09
36864, 0.50, -0.77, 0.43, 6.37, -27.51, 55.65
36865, 0.49, -0.75, 0.35, 14.63, -11.83, 62.23
36866, 0.44, -0.78, 0.45, 38.85, -18.34, 69.58
36867, 0.47, -0.73, 0.46, 55.93, -17.99, 80.57
36868, 0.43, -0.65, 0.50, 54.88, -11.48, 82.39
36869, 0.36, -0.73, 0.51, 35.14, 11.41, 72.03
36870, 0.28, -0.77, 0.47, 23.59, 14.77, 79.10
36871, 0.31, -0.79, 0.54, 7.70, 21.70, 85.40
36872, 0.28, -0.73, 0.62, -13.16, 41.30, 64.33
36873, 0.21, -0.94, 0.62, -29.47, 39.62, 37.03
36874, 0.05, -1.02, 0.57, -20.02, 48.51, -0.07
36875, 0.02, -0.86, 0.49, -7.35, 21.42, -23.59
36876, 0.16, -0.89, 0.44, -21.28, 3.64, -50.47
36877, 0.04, -0.94, 0.48, -19.95, -35.91, -68.67
36878, 0.06, -0.96, 0.53, -14.35, -61.60, -66.22
36879, 0.24, -0.98, 0.57, 0.21, -59.78, -57.05
36880, 0.05, -0.94, 0.52, 20.44, -44.52, -42.14
36881, 0.31, -0.90, 0.76, 30.03, -46.76, -26.39
36882, 0.35, -0.82, 0.55, 21.77, 19.46, -10.85
36883, 0.31, -0.79, 0.59, 14.21, 21.77, -5.60
36884, 0.32, -0.65, 0.65, -2.45, 9.45, -39.13
36885, 0.31, -0.56, 0.61, -4.62, 8.89, -59.08
36886, 0.35, -0.56, 0.53, -12.74, 6.23, -67.27
36887, 0.38, -0.58, 0.54, -28.35, -6.23, -75.95
36888, 0.43, -0.64, 0.62, -43.54, -7.28, -78.61
36889, 0.49, -0.69, 0.59, -55.02, 17.36, -64.75
36890, 0.54, -0.65, 0.46, -63.49, 15.82, -74.83
36891, 0.49, -0.69, 0.49, -21.49, 36.54, -63.35
36892, 0.44, -0.66, 0.45, -37.10, 39.13, -75.81
36893, 0.39, -0.78, 0.55, -59.64, -14.14, -70.77
36894, 0.63, -0.70, 0.40, -28.28, 12.95, -50.40
36895, 0.58, -0.85, 0.33, -41.16, 51.24, -19.88
36896, 0.43, -1.02, 0.60, 15.89, 52.85, 8.68
36897, 0.66, -1.00, 0.27, -74.90, 32.27, -38.01
36898, 0.55, -1.24, 0.48, 21.07, 52.29, -16.94
36899, 0.42, -1.13, 0.43, 17.71, 11.06, 3.71
36900, 0.37, -0.84, 0.46, 24.78, -4.69, 12.25
36901, 0.34, -0.65, 0.36, 24.01, -12.81, 5.74
36902, 0.40, -0.70, 0.31, 16.31, -34.44, 10.71
36903, 0.33, -0.79, 0.47, 9.73, -68.18, 12.95
36904, 0.45, -0.75, 0.43, 5.04, -64.12, 36.61
36905, 0.56, -0.69, 0.44, 0.28, -37.31, 45.29
36906, 0.66, -0.63, 0.39, -4.41, -10.43, 32.20
36907, 0.68, -0.68, 0.38, -0.56, 2.73, 33.67
36908, 0.63, -0.73, 0.43, 27.86, 20.93, 46.69
36909, 0.59, -0.68, 0.45, 50.68, 16.73, 58.52
36910, 0.56, -0.61, 0.49, 41.30, 16.10, 65.45
36911, 0.38, -0.61, 0.49, 53.06, 32.97, 59.22
36912, 0.28, -0.68, 0.43, 25.83, 31.50, 56.84
36913, 0.24, -0.58, 0.54, 26.11, 22.19, 71.47
36914, 0.25, -0.62, 0.64, -23.59, 19.81, 49.35
36915, 0.44, -0.89, 0.51, -60.76, 23.03, 18.62
36916, 0.18, -1.10, 0.68, -52.50, 21.91, -25.69
36917, 0.17, -0.93, 0.49, -17.50, 17.78, -41.86
36918, 0.31, -0.99, 0.50, -45.78, 1.89, -62.16
36919, 0.25, -0.92, 0.41, -21.35, -37.03, -68.95
36920, 0.30, -0.79, 0.45, -5.11, -71.05, -72.80
36921, 0.56, -1.08, 0.58, -30.03, -14.91, -55.58
36922, 0.50, -0.96, 0.50, -1.96, 13.44, -38.01
36923, 0.41, -0.76, 0.50, 41.23, 15.47, -45.01
36924, 0.37, -0.57, 0.49, 39.97, 26.11, -41.72
36925, 0.38, -0.53, 0.52, 18.90, 26.60, -33.39
36926, 0.43, -0.51, 0.54, -7.84, 10.99, -26.53
36927, 0.49, -0.51, 0.52, -38.36, -33.18, -45.71
36928, 0.52, -0.57, 0.55, -39.48, -26.46, -35.91
36929, 0.48, -0.59, 0.47, -51.80, 0.28, -54.88
36930, 0.36, -0.71, 0.54, -52.15, -36.75, -55.37
36931, 0.56, -0.87, 0.34, -8.05, -14.00, -19.25
36932, 0.53, -0.92, 0.32, -8.68, 15.89, 16.31
36933, 0.52, -1.05, 0.56, 34.02, 25.34, 35.63
36934, 0.78, -1.09, 0.34, -71.61, 30.31, -19.46
36935, 0.57, -1.30, 0.52, 42.70, 34.72, 11.69
36936, 0.41, -0.98, 0.36, 41.93, 7.84, 39.97
36937, 0.33, -0.70, 0.39, 51.59, -15.40, 34.02
36938, 0.30, -0.67, 0.30, 42.49, -21.49, 31.85
36939, 0.35, -0.72, 0.30, 14.49, -48.51, 28.70
36940, 0.45, -0.72, 0.44, 3.57, -49.49, 34.02
36941, 0.51, -0.70, 0.37, 3.01, -27.09, 50.54
36942, 0.57, -0.71, 0.38, 14.84, -20.72, 62.09
36943, 0.62, -0.69, 0.45, 44.94, -14.49, 76.16
36944, 0.58, -0.60, 0.53, 63.14, 0.91, 85.19
36945, 0.56, -0.56, 0.53, 55.02, 1.89, 95.34
36946, 0.44, -0.59, 0.51, 39.20, 28.91, 66.85
36947, 0.23, -0.74, 0.50, 22.33, 28.35, 64.26
36948, 0.00, -0.65, 0.47, 36.19, 6.09, 100.94
36949, 0.11, -0.59, 0.65, -15.82, -2.66, 89.60
36950, 0.38, -0.78, 0.54, -65.38, -12.74, 53.69
36951, 0.19, -1.10, 0.77, -53.55, 5.81, -23.17
36952, 0.02, -0.91, 0.54, -23.03, -7.00, -35.84
36953, 0.35, -1.05, 0.53, -68.11, -19.81, -70.98
36954, 0.23, -1.03, 0.40, -31.22, -42.28, -81.06
36955, 0.23, -1.04, 0.37, 25.20, -57.33, -67.20
36956, 0.39, -1.03, 0.64, 3.92, -9.24, -48.65
36957, 0.41, -0.79, 0.51, 4.48, 7.91, -44.80
36958, 0.37, -0.67, 0.49, 29.40, 0.77, -62.37
36959, 0.37, -0.61, 0.50, 27.72, 1.40, -69.79
36960, 0.40, -0.57, 0.49, 17.78, 12.95, -60.06
36961, 0.49, -0.56, 0.57, -7.07, 7.21, -57.12
36962, 0.56, -0.57, 0.53, -45.85, -16.87, -70.56
36963, 0.59, -0.62, 0.44, -29.47, 10.29, -39.69
36964, 0.53, -0.55, 0.34, -27.09, 21.42, -27.23
36965, 0.42, -0.63, 0.60, -45.15, -24.50, -57.05
36966, 0.53, -0.75, 0.32, -17.43, -2.17, -46.20
36967, 0.56, -1.03, 0.24, -27.51, 9.66, -1.05
36968, 0.54, -1.07, 0.55, 29.19, 22.47, 35.00
36969, 0.69, -1.12, 0.42, -34.58, 34.37, -14.28
36970, 0.52, -1.31, 0.47, 66.22, 33.46, 28.14
36971, 0.40, -0.99, 0.48, 29.26, 0.14, 33.25
36972, 0.33, -0.73, 0.43, 29.47, -10.99, 30.10
36973, 0.26, -0.67, 0.26, 39.83, -24.08, 31.57
36974, 0.31, -0.74, 0.39, 30.38, -56.63, 32.34
36975, 0.46, -0.69, 0.45, 3.01, -37.73, 38.22
36976, 0.53, -0.66, 0.36, 6.93, -26.88, 52.71
36977, 0.58, -0.69, 0.40, 24.22, -20.02, 64.19
36978, 0.64, -0.66, 0.48, 39.90, -7.77, 73.92
36979, 0.57, -0.60, 0.50, 62.37, 3.22, 87.36
36980, 0.53, -0.62, 0.57, 52.57, 3.08, 79.87
36981, 0.37, -0.69, 0.52, 38.43, 23.17, 61.18
36982, 0.11, -0.63, 0.50, 38.99, 14.42, 86.59
36983, 0.27, -0.61, 0.53, -3.57, 11.90, 82.95
36984, 0.37, -0.63, 0.69, -39.76, 16.87, 50.12
36985, 0.48, -1.00, 0.65, -64.89, 32.48, -6.65
36986, 0.14, -1.04, 0.62, -37.52, 7.35, -52.57
36987, 0.24, -0.94, 0.54, -40.18, -3.85, -60.27
36988, 0.26, -0.87, 0.43, -39.90, 1.26, -79.17
36989, 0.20, -0.76, 0.48, -25.48, -50.54, -87.85
36990, 0.34, -0.87, 0.59, -24.92, -65.66, -99.82
36991, 0.43, -0.96, 0.52, -20.23, 11.27, -67.69
36992, 0.44, -0.82, 0.51, -8.33, 11.97, -71.96
36993, 0.46, -0.72, 0.48, -3.29, 6.72, -75.74
36994, 0.44, -0.63, 0.44, 0.98, 18.06, -67.69
36995, 0.51, -0.58, 0.48, -3.71, 17.78, -53.48
36996, 0.51, -0.58, 0.50, -22.40, 8.40, -40.46
36997, 0.56, -0.53, 0.44, -27.86, -5.25, -47.53
36998, 0.58, -0.49, 0.44, -30.52, 14.07, -37.73
36999, 0.42, -0.63, 0.56, -55.23, -16.87, -59.15
37000, 0.56, -0.77, 0.26, -50.82, -9.73, -43.89
37001, 0.53, -0.94, 0.18, -38.57, 12.81, -5.67
37002, 0.47, -0.90, 0.44, 15.68, 21.91, 39.06
37003, 0.77, -1.01, 0.31, -77.07, 7.98, -28.84
37004, 0.77, -1.39, 0.41, -14.35, 31.50, -12.04
37005, 0.45, -1.15, 0.31, 40.25, 10.01, 37.17
37006, 0.35, -0.90, 0.42, 67.34, 2.45, 39.48
37007, 0.32, -0.70, 0.33, 52.71, -22.54, 21.77
37008, 0.38, -0.67, 0.32, 39.55, -45.50, 17.43
37009, 0.49, -0.68, 0.37, -16.94, -47.18, 18.97
37010, 0.55, -0.72, 0.36, 0.56, -23.45, 36.54
37011, 0.60, -0.69, 0.33, 14.98, -0.84, 49.35
37012, 0.63, -0.75, 0.35, 23.66, -1.12, 51.17
37013, 0.63, -0.75, 0.41, 49.77, 8.68, 64.54
37014, 0.59, -0.63, 0.48, 63.07, 5.32, 78.12
37015, 0.53, -0.53, 0.48, 57.19, 10.85, 84.84
37016, 0.44, -0.64, 0.52, 46.55, 15.33, 70.91
37017, 0.30, -0.72, 0.47, 25.13, 14.07, 70.63
37018, 0.24, -0.73, 0.50, 15.68, 6.23, 82.39
37019, 0.26, -0.70, 0.53, 2.24, 9.80, 81.76
37020, 0.34, -0.76, 0.62, -21.49, 4.69, 54.81
37021, 0.39, -0.95, 0.55, -32.48, 16.45, 34.79
37022, 0.21, -0.98, 0.55, -14.49, 1.05, -11.27
37023, 0.22, -0.86, 0.57, -12.67, -17.29, -37.31
37024, 0.31, -0.91, 0.62, -32.27, -22.05, -65.17
37025, 0.33, -0.98, 0.52, -35.63, -16.38, -71.89
37026, 0.27, -0.95, 0.42, 21.42, -26.18, -61.88
37027, 0.36, -0.83, 0.52, 0.49, -32.69, -62.16
37028, 0.45, -0.88, 0.53, -9.94, 3.99, -62.93
37029, 0.44, -0.81, 0.51, 8.33, 26.53, -46.62
37030, 0.40, -0.64, 0.51, 9.45, 18.20, -59.64
37031, 0.39, -0.55, 0.48, -0.21, 19.18, -64.96
37032, 0.47, -0.54, 0.50, -5.81, 17.15, -63.70
37033, 0.51, -0.58, 0.54, -28.91, 2.66, -66.08
37034, 0.55, -0.64, 0.51, -52.36, -15.68, -64.12
37035, 0.57, -0.62, 0.48, -36.89, 14.35, -34.72
37036, 0.58, -0.49, 0.45, -34.16, 28.00, -22.05
37037, 0.44, -0.60, 0.63, -62.44, -1.96, -58.80
37038, 0.58, -0.69, 0.20, -79.80, 2.52, -59.01
37039, 0.49, -0.92, 0.23, -67.97, 4.27, -29.89
37040, 0.52, -0.97, 0.39, -22.40, 26.95, 9.24
37041, 0.77, -1.09, 0.26, -121.45, 8.12, -25.69
37042, 0.78, -1.32, 0.34, -26.18, 50.33, -8.12
37043, 0.50, -1.18, 0.21, 73.85, 8.40, 38.22
37044, 0.40, -0.89, 0.42, 75.46, -12.95, 42.70
37045, 0.27, -0.74, 0.39, 74.97, -22.82, 31.36
37046, 0.29, -0.73, 0.31, 64.33, -60.97, 11.06
37047, 0.39, -0.69, 0.35, 34.79, -73.43, 20.51
37048, 0.52, -0.69, 0.44, 16.31, -66.64, 30.24
37049, 0.56, -0.71, 0.40, 14.70, -47.46, 44.31
37050, 0.63, -0.71, 0.36, 14.21, -35.91, 57.19
37051, 0.67, -0.71, 0.36, 28.14, -26.60, 61.95
37052, 0.67, -0.73, 0.43, 41.86, -14.77, 75.32
37053, 0.61, -0.62, 0.45, 53.13, -7.42, 96.67
37054, 0.54, -0.53, 0.51, 47.95, -10.08, 92.54
37055, 0.49, -0.58, 0.50, 25.41, -9.10, 85.96
37056, 0.40, -0.68, 0.53, 36.96, 9.73, 77.35
37057, 0.26, -0.76, 0.49, 33.32, 9.94, 90.58
37058, 0.19, -0.66, 0.50, 37.94, 3.71, 106.19
37059, 0.22, -0.60, 0.60, -3.15, -4.90, 79.17
37060, 0.48, -0.99, 0.56, -49.42, -9.45, 41.02
37061, -0.11, -1.11, 0.53, -16.80, -25.41, -5.95
37062, 0.24, -1.01, 0.44, -16.73, -55.23, -23.38
37063, 0.31, -0.90, 0.43, -28.56, -47.39, -52.15
37064, 0.20, -1.04, 0.47, 9.80, -41.16, -60.34
37065, 0.48, -1.01, 0.47, -7.49, -7.14, -61.81
37066, 0.54, -1.03, 0.47, -10.92, 28.91, -52.50
37067, 0.44, -0.81, 0.40, 4.97, 37.17, -47.81
37068, 0.40, -0.69, 0.45, 1.75, 6.02, -69.93
37069, 0.38, -0.58, 0.44, 10.92, 18.13, -72.73
37070, 0.44, -0.59, 0.46, 14.98, 11.48, -68.46
37071, 0.49, -0.61, 0.52, -14.77, -14.56, -74.69
37072, 0.57, -0.64, 0.45, -39.27, -14.91, -53.34
37073, 0.57, -0.64, 0.45, -18.20, 3.50, -19.39
37074, 0.53, -0.49, 0.34, -16.80, 2.10, -9.45
37075, 0.46, -0.52, 0.46, -28.21, -36.33, -25.76
37076, 0.59, -0.75, 0.21, -59.36, 2.45, -35.98
37077, 0.44, -1.01, 0.20, -30.24, 9.94, 15.12
37078, 0.62, -1.07, 0.24, -15.61, -3.29, 1.82
37079, 0.89, -1.39, 0.42, -36.89, 18.83, -18.34
37080, 0.50, -1.35, 0.30, 71.19, 24.64, 26.95
37081, 0.28, -0.96, 0.45, 60.90, -2.03, 32.83
37082, 0.22, -0.78, 0.35, 57.82, -11.97, 25.97
37083, 0.24, -0.75, 0.25, 55.58, -37.66, 25.48
37084, 0.42, -0.78, 0.42, 27.65, -56.84, 36.33
37085, 0.55, -0.71, 0.40, 30.24, -22.61, 51.80
37086, 0.59, -0.67, 0.35, 32.90, -13.86, 52.64
37087, 0.68, -0.74, 0.41, 25.41, -20.30, 49.00
37088, 0.66, -0.69, 0.50, 54.67, -1.47, 68.18
37089, 0.53, -0.57, 0.54, 62.86, 8.82, 70.42
37090, 0.58, -0.57, 0.57, 43.54, 4.76, 69.65
37091, 0.60, -0.64, 0.60, 54.88, 30.73, 48.23
37092, 0.41, -0.64, 0.56, 40.46, 33.81, 54.60
37093, 0.35, -0.61, 0.68, 23.94, 42.84, 41.23
37094, 0.33, -0.54, 0.66, -20.23, 36.68, 10.92
37095, 0.46, -0.89, 0.61, -63.56, 34.86, -82.67
37096, 0.21, -0.79, 0.55, -83.23, 1.19, -131.95
37097, 0.42, -0.89, 0.51, -128.59, 12.39, -162.54
37098, 0.29, -1.07, 0.44, -56.98, 28.49, -140.98
37099, 0.54, -1.00, 0.39, -34.02, 28.63, -92.40
37100, 0.62, -1.05, 0.29, -53.76, 28.14, -84.07
37101, 0.57, -0.97, 0.37, 10.01, 31.29, -60.62
37102, 0.50, -0.72, 0.45, 8.68, 34.16, -55.58
37103, 0.44, -0.57, 0.42, 1.05, 17.50, -66.22
37104, 0.47, -0.49, 0.50, -2.24, 3.50, -68.81
37105, 0.54, -0.52, 0.60, -37.03, 11.41, -58.31
37106, 0.59, -0.51, 0.41, -50.61, 21.07, -29.05
37107, 0.60, -0.42, 0.39, -34.79, -17.71, -20.65
37108, 0.64, -0.39, 0.43, -33.18, 3.57, -8.19
37109, 0.54, -0.48, 0.44, -78.82, -16.24, -41.09
37110, 0.65, -0.75, 0.04, -87.29, -21.77, -35.56
37111, 0.65, -1.07, 0.22, -31.64, -6.51, 2.03
37112, 0.82, -1.25, 0.24, -34.65, -7.70, -5.32
37113, 0.91, -1.43, 0.42, 17.29, 25.62, 21.49
37114, 0.57, -1.12, 0.49, 110.95, 28.42, 70.14
37115, 0.40, -0.76, 0.53, 89.11, 17.22, 52.08
37116, 0.45, -0.67, 0.48, 67.83, -24.99, 30.94
37117, 0.33, -0.57, 0.32, 60.13, -38.99, 32.83
37118, 0.50, -0.65, 0.43, 10.29, -52.01, 24.85
37119, 0.59, -0.66, 0.42, 9.03, -15.68, 40.04
37120, 0.60, -0.64, 0.40, 17.29, -6.86, 57.82
37121, 0.66, -0.67, 0.43, 21.70, -4.55, 58.10
37122, 0.67, -0.57, 0.45, 41.23, 14.77, 64.54
37123, 0.65, -0.57, 0.51, 46.20, 22.96, 72.45
37124, 0.59, -0.56, 0.56, 40.81, 21.77, 75.67
37125, 0.43, -0.56, 0.55, 44.31, 34.79, 52.85
37126, 0.35, -0.61, 0.46, 29.26, 26.95, 38.57
37127, 0.32, -0.71, 0.45, 19.95, 30.73, 64.33
37128, 0.37, -0.73, 0.64, -8.75, 21.28, 47.88
37129, 0.56, -0.91, 0.55, -40.18, 22.89, 13.86
37130, 0.31, -0.96, 0.68, -38.22, 22.40, -37.45
37131, 0.19, -0.81, 0.59, -43.54, -12.74, -60.55
37132, 0.31, -0.93, 0.54, -65.03, -40.04, -69.23
37133, 0.16, -0.97, 0.52, -9.80, -41.79, -66.85
37134, 0.34, -0.80, 0.57, -10.36, -45.29, -50.47
37135, 0.45, -0.93, 0.55, -17.78, -6.44, -51.10
37136, 0.48, -0.84, 0.47, -15.19, -5.88, -45.64
37137, 0.44, -0.68, 0.50, 3.57, -39.27, -51.10
37138, 0.36, -0.59, 0.49, 15.96, -52.43, -46.06
37139, 0.42, -0.52, 0.49, -1.47, -45.71, -27.23
37140, 0.65, -0.49, 0.45, -31.92, -37.59, -29.96
37141, 0.72, -0.53, 0.50, -62.30, -43.54, -56.77
37142, 0.72, -0.59, 0.40, -55.37, 7.70, -46.41
37143, 0.68, -0.57, 0.40, -53.27, 28.00, -60.62
37144, 0.52, -0.71, 0.33, -72.03, 5.39, -84.77
37145, 0.56, -0.83, 0.38, -57.19, -18.20, -66.22
37146, 0.60, -0.88, 0.27, -40.39, 17.92, -22.26
37147, 0.47, -0.81, 0.30, -12.25, 20.16, 21.70
37148, 0.56, -0.81, 0.36, -25.13, 27.72, 29.54
37149, 0.72, -0.84, 0.24, -92.12, 41.72, 10.64
37150, 0.79, -0.88, 0.30, -46.62, 53.90, 7.77
37151, 0.79, -0.96, 0.37, -20.51, 51.03, -6.30
37152, 0.72, -0.94, 0.25, -41.93, 46.62, -16.94
37153, 0.59, -0.86, 0.21, 34.51, 22.26, -0.35
37154, 0.53, -0.66, 0.31, 34.58, 21.49, -3.78
37155, 0.47, -0.65, 0.20, 25.76, -3.36, 9.87
37156, 0.49, -0.76, 0.25, 30.17, -28.00, 19.32
37157, 0.60, -0.76, 0.33, 12.95, -33.88, 27.09
37158, 0.63, -0.73, 0.35, 15.96, -17.29, 37.31
37159, 0.65, -0.75, 0.34, 24.71, -8.89, 48.09
37160, 0.67, -0.68, 0.31, 39.48, -1.26, 61.04
37161, 0.68, -0.67, 0.31, 52.99, -7.77, 69.44
37162, 0.63, -0.64, 0.40, 61.25, 4.83, 72.10
37163, 0.61, -0.58, 0.42, 66.08, 9.24, 76.51
37164, 0.59, -0.53, 0.47, 59.15, 8.54, 85.40
37165, 0.53, -0.58, 0.53, 49.14, 9.45, 76.51
37166, 0.36, -0.64, 0.41, 29.61, 16.59, 67.06
37167, 0.24, -0.69, 0.47, 17.15, -0.77, 77.21
37168, 0.41, -0.69, 0.50, 7.35, 5.95, 77.77
37169, 0.46, -0.77, 0.56, -23.80, 10.15, 56.84
37170, 0.51, -0.98, 0.58, -27.72, 21.98, 18.27
37171, 0.22, -0.98, 0.65, -18.76, -16.80, -22.96
37172, 0.34, -0.92, 0.53, -26.32, -12.95, -42.70
37173, 0.35, -1.00, 0.48, -15.05, 8.54, -45.01
37174, 0.33, -0.87, 0.42, 35.28, 19.18, -26.60
37175, 0.38, -0.91, 0.45, 9.80, 9.94, -33.88
37176, 0.41, -0.86, 0.52, 2.24, -14.91, -54.88
37177, 0.39, -0.75, 0.53, 19.46, 6.37, -41.37
37178, 0.38, -0.56, 0.55, 10.57, -13.65, -64.54
37179, 0.42, -0.54, 0.55, -7.56, -10.29, -73.57
37180, 0.46, -0.58, 0.52, -16.87, 1.40, -63.14
37181, 0.48, -0.57, 0.49, -37.45, -0.84, -56.14
37182, 0.55, -0.57, 0.40, -62.16, -39.90, -51.03
37183, 0.61, -0.64, 0.48, -39.69, -29.75, -22.05
37184, 0.67, -0.56, 0.44, -31.22, 1.05, -4.76
37185, 0.57, -0.63, 0.50, -52.15, -1.82, -34.09
37186, 0.58, -0.70, 0.30, -54.11, -10.92, -31.50
37187, 0.65, -0.94, 0.13, -56.28, 14.42, -12.74
37188, 0.54, -1.00, 0.43, 23.73, 23.38, 20.58
37189, 0.84, -1.20, 0.22, -33.60, 27.09, -38.15
37190, 0.55, -1.36, 0.50, 53.97, 50.89, 3.36
37191, 0.39, -0.92, 0.38, 31.08, 22.05, 26.18
37192, 0.28, -0.75, 0.44, 42.42, 11.76, 18.34
37193, 0.28, -0.68, 0.41, 25.90, -10.29, 6.09
37194, 0.35, -0.72, 0.32, 19.39, -30.73, 1.89
37195, 0.44, -0.67, 0.44, 21.70, -23.31, 20.30
37196, 0.53, -0.66, 0.39, 6.72, -14.63, 24.01
37197, 0.73, -0.82, 0.29, -32.83, -25.97, 17.01
37198, 0.69, -0.78, 0.28, 19.67, 3.71, 58.87
37199, 0.66, -0.73, 0.43, 53.55, -7.21, 77.98
37200, 0.59, -0.56, 0.52, 51.73, 5.39, 84.77
37201, 0.59, -0.53, 0.49, 41.86, 15.82, 86.73
37202, 0.51, -0.52, 0.55, 40.39, 34.23, 72.24
37203, 0.39, -0.68, 0.48, 40.04, 51.31, 68.81
37204, 0.28, -0.70, 0.52, 29.40, 45.92, 85.54
37205, 0.29, -0.69, 0.59, 7.77, 32.27, 67.83
37206, 0.46, -0.96, 0.50, -39.76, 14.56, 40.88
37207, 0.15, -0.96, 0.69, -3.22, -2.24, -32.97
37208, 0.17, -0.83, 0.58, -35.00, -32.13, -53.97
37209, 0.28, -0.88, 0.52, -47.88, -37.24, -74.69
37210, 0.28, -0.87, 0.49, -21.42, -54.60, -84.07
37211, 0.32, -0.92, 0.50, -7.70, -64.12, -64.96
37212, 0.46, -0.83, 0.58, -10.64, -24.22, -68.95
37213, 0.49, -0.79, 0.56, -19.18, 10.43, -62.16
37214, 0.54, -0.72, 0.50, -4.48, 18.83, -74.13
37215, 0.48, -0.63, 0.44, -14.07, 16.94, -73.71
37216, 0.50, -0.61, 0.44, -25.48, 15.54, -67.06
37217, 0.51, -0.64, 0.49, -28.70, 10.71, -52.71
37218, 0.57, -0.65, 0.41, -44.10, 1.75, -39.55
37219, 0.63, -0.56, 0.45, -42.84, 4.34, -12.18
37220, 0.62, -0.47, 0.43, -34.09, 20.65, -12.74
37221, 0.64, -0.52, 0.40, -72.24, 2.17, -39.55
37222, 0.60, -0.86, 0.12, -88.97, 42.70, -40.25
37223, 0.42, -0.98, 0.28, -36.68, 35.14, 10.85
37224, 0.69, -1.07, 0.20, -73.71, -11.48, -36.33
37225, 0.70, -1.39, 0.42, 5.18, 27.72, -12.25
37226, 0.50, -1.11, 0.37, 47.53, 9.52, 29.96
37227, 0.30, -0.79, 0.42, 61.39, 6.37, 35.00
37228, 0.16, -0.45, 0.47, 87.22, -8.12, 30.24
37229, 0.51, -0.81, 0.33, -20.23, -31.50, -7.00
37230, 0.55, -0.87, 0.16, -7.56, -25.90, 9.59
37231, 0.50, -0.84, 0.41, 47.04, -56.63, 40.88
37232, 0.57, -0.66, 0.49, 29.47, -32.34, 53.90
37233, 0.65, -0.59, 0.42, 31.99, -5.81, 54.74
37234, 0.71, -0.64, 0.46, 29.19, 4.83, 53.27
37235, 0.67, -0.63, 0.47, 47.46, 27.16, 62.58
37236, 0.62, -0.58, 0.48, 46.27, 18.76, 75.46
37237, 0.58, -0.60, 0.53, 36.19, 25.55, 74.62
37238, 0.35, -0.61, 0.51, 43.47, 44.10, 67.97
37239, 0.35, -0.76, 0.54, 44.24, 41.09, 66.92
37240, 0.38, -0.68, 0.42, 11.55, 38.64, 76.16
37241, 0.30, -0.69, 0.57, -8.68, 21.77, 49.77
37242, 0.41, -0.92, 0.63, -32.83, 14.91, -3.15
37243, 0.18, -0.95, 0.67, -27.44, -18.90, -51.24
37244, 0.30, -0.92, 0.58, -45.78, -32.48, -79.45
37245, 0.32, -0.96, 0.49, -59.92, -37.03, -88.62
37246, 0.27, -1.03, 0.51, 20.65, -40.18, -62.65
37247, 0.51, -0.91, 0.59, 12.18, 8.05, -54.32
37248, 0.49, -0.86, 0.40, -14.63, 16.52, -56.70
37249, 0.48, -0.77, 0.46, 23.66, 25.62, -57.40
37250, 0.46, -0.58, 0.47, 10.50, 12.18, -81.83
37251, 0.46, -0.50, 0.49, 2.80, 3.01, -90.09
37252, 0.53, -0.47, 0.49, -13.02, -17.85, -92.75
37253, 0.56, -0.50, 0.56, -26.11, 2.45, -85.89
37254, 0.60, -0.56, 0.49, -70.14, -1.61, -77.21
37255, 0.59, -0.64, 0.43, -88.83, -6.16, -84.98
37256, 0.54, -0.81, 0.35, -67.76, 4.34, -40.53
37257, 0.55, -0.82, 0.33, -46.62, 15.61, -3.50
37258, 0.52, -0.69, 0.44, -39.90, -7.35, 15.33
37259, 0.71, -0.54, 0.27, -67.83, 10.15, 19.67
37260, 0.57, -0.70, 0.12, -51.66, 39.76, 19.18
37261, 0.54, -0.84, 0.38, -25.13, 1.05, 18.20
37262, 0.75, -0.97, 0.31, -59.08, 10.43, -25.83
37263, 0.79, -1.15, 0.47, 45.71, 23.52, -2.38
37264, 0.79, -0.98, 0.42, 57.19, 21.91, 10.22
37265, 0.65, -0.77, 0.46, 33.39, 17.64, 3.22
37266, 0.49, -0.64, 0.49, 27.23, 5.53, -16.87
37267, 0.39, -0.52, 0.41, 30.03, 2.80, 9.17
37268, 0.47, -0.59, 0.34, 27.23, -14.77, 13.02
37269, 0.59, -0.68, 0.42, 18.48, -9.80, 26.46
37270, 0.40, -0.31, 0.47, 69.02, 44.73, 56.28
37271, 0.69, -0.45, 0.47, -10.22, 8.47, 20.51
37272, 0.83, -0.81, 0.35, -52.78, 46.76, 15.89
37273, 0.57, -0.74, 0.40, 59.01, 31.78, 73.92
37274, 0.47, -0.67, 0.48, 24.57, 18.13, 69.86
37275, 0.44, -0.66, 0.47, 4.13, 8.61, 60.62
37276, 0.33, -0.66, 0.49, -4.27, 25.20, 57.05
37277, 0.42, -0.69, 0.42, -16.87, 36.12, 63.21
37278, 0.48, -0.70, 0.51, -28.42, 26.67, 64.89
37279, 0.69, -0.80, 0.51, -52.43, 27.16, 39.83
37280, 0.39, -1.01, 0.81, -47.74, 35.21, -27.30
37281, 0.14, -0.83, 0.62, -24.29, 39.76, -42.70
37282, 0.40, -0.93, 0.54, -66.08, 8.54, -69.09
37283, 0.31, -0.88, 0.37, -40.25, -14.77, -66.08
37284, 0.35, -0.86, 0.47, -2.03, -40.53, -47.18
37285, 0.43, -0.86, 0.50, -30.17, -37.38, -64.33
37286, 0.48, -0.87, 0.52, -10.71, 4.41, -52.85
37287, 0.46, -0.68, 0.45, 9.73, 18.62, -62.72
37288, 0.49, -0.61, 0.41, 0.35, 5.95, -69.30
37289, 0.50, -0.56, 0.46, -11.27, 0.77, -62.58
37290, 0.53, -0.48, 0.44, -29.12, 8.26, -46.90
37291, 0.61, -0.45, 0.39, -63.84, -30.80, -56.84
37292, 0.61, -0.56, 0.47, -41.93, -4.76, -48.79
37293, 0.55, -0.79, 0.30, -50.33, 13.44, -48.09
37294, 0.58, -0.83, 0.18, -48.37, -26.67, -28.21
37295, 0.67, -0.84, 0.24, -44.80, 8.26, 1.54
37296, 0.65, -0.87, 0.29, -33.32, 42.35, 31.36
37297, 0.81, -1.06, 0.25, -39.41, 45.01, -12.74
37298, 0.69, -1.18, 0.44, 46.48, 57.89, -9.03
37299, 0.60, -1.09, 0.39, 37.52, 40.67, -11.97
37300, 0.42, -0.90, 0.44, 33.25, 24.01, 8.12
37301, 0.30, -0.63, 0.40, 15.19, 0.98, 14.14
37302, 0.37, -0.65, 0.28, 17.08, -26.95, 20.72
37303, 0.48, -0.76, 0.41, 5.25, -37.03, 21.42
37304, 0.53, -0.68, 0.37, 15.54, -6.23, 43.89
37305, 0.63, -0.64, 0.34, 16.38, 4.06, 48.02
37306, 0.71, -0.66, 0.36, 15.47, 7.98, 52.57
37307, 0.71, -0.66, 0.44, 38.43, 19.32, 68.67
37308, 0.61, -0.57, 0.44, 53.55, 27.51, 91.77
37309, 0.53, -0.53, 0.51, 56.77, 30.38, 84.84
37310, 0.34, -0.67, 0.49, 44.31, 49.77, 65.94
37311, 0.24, -0.70, 0.42, 34.23, 40.39, 79.03
37312, 0.34, -0.70, 0.47, -5.32, 38.15, 75.18
37313, 0.43, -0.78, 0.52, -42.91, 14.07, 43.61
37314, 0.48, -1.00, 0.66, -45.71, 27.93, -5.74
37315, 0.17, -0.96, 0.68, -34.79, -5.39, -50.05
37316, 0.25, -0.94, 0.48, -55.93, -19.46, -63.56
37317, 0.24, -1.00, 0.43, -39.62, -29.33, -72.10
37318, 0.22, -0.99, 0.55, 30.45, -45.50, -46.90
37319, 0.42, -0.85, 0.51, -28.84, -3.50, -58.31
37320, 0.49, -0.88, 0.52, -13.44, 21.49, -62.02
37321, 0.49, -0.73, 0.50, 4.48, 20.58, -67.90
37322, 0.44, -0.64, 0.46, -5.39, 6.72, -88.76
37323, 0.43, -0.57, 0.44, -0.98, 9.17, -85.75
37324, 0.53, -0.57, 0.45, -17.57, 6.58, -77.77
37325, 0.57, -0.60, 0.50, -43.33, 15.19, -73.71
37326, 0.61, -0.60, 0.43, -69.51, -12.60, -63.70
37327, 0.63, -0.61, 0.49, -37.73, 15.40, -25.13
37328, 0.63, -0.47, 0.33, -42.70, 39.83, -34.23
37329, 0.55, -0.65, 0.37, -74.06, -6.02, -47.32
37330, 0.62, -0.82, 0.25, -70.98, 7.00, -25.48
37331, 0.58, -0.91, 0.18, -74.41, 27.86, -0.70
37332, 0.67, -0.96, 0.38, -54.18, 27.30, -3.01
37333, 0.86, -1.11, 0.39, -75.32, 64.61, -35.14
37334, 0.67, -1.17, 0.37, 13.23, 68.39, -21.07
37335, 0.57, -0.96, 0.38, 3.78, 54.81, -9.66
37336, 0.46, -0.87, 0.39, -41.44, 31.92, -9.94
37337, 0.40, -0.63, 0.15, -15.19, 27.09, 15.33
37338, 0.45, -0.78, 0.30, 19.04, -7.07, 22.47
37339, 0.47, -0.69, 0.38, 12.11, 0.07, 34.23
37340, 0.55, -0.59, 0.31, 17.08, 5.11, 41.37
37341, 0.61, -0.63, 0.36, 16.10, 9.80, 39.41
37342, 0.65, -0.66, 0.39, 34.51, 20.86, 54.95
37343, 0.58, -0.64, 0.43, 43.61, 4.90, 74.13
37344, 0.50, -0.53, 0.47, 48.79, 21.14, 55.09
37345, 0.35, -0.66, 0.41, 22.68, 23.38, 40.32
37346, 0.17, -0.72, 0.38, 29.82, 5.25, 70.35
37347, 0.41, -0.81, 0.52, -14.70, 3.92, 80.71
37348, 0.53, -0.79, 0.51, -35.70, 0.98, 77.49
37349, 0.69, -1.02, 0.50, -32.97, 27.37, 40.81
37350, 0.27, -1.02, 0.71, -12.18, 11.83, -12.81
37351, 0.34, -0.89, 0.46, -21.91, 4.55, -31.29
37352, 0.33, -0.89, 0.42, -18.97, -5.95, -53.62
37353, 0.31, -0.89, 0.41, -11.48, -22.47, -59.71
37354, 0.34, -0.88, 0.49, -15.19, -38.22, -57.89
37355, 0.43, -0.89, 0.49, -16.24, 11.69, -59.43
37356, 0.44, -0.83, 0.45, 11.13, 33.39, -45.43
37357, 0.45, -0.62, 0.43, 14.98, -0.63, -77.07
37358, 0.46, -0.58, 0.49, -1.33, -4.27, -81.62
37359, 0.50, -0.54, 0.44, -14.28, 7.00, -62.65
37360, 0.50, -0.47, 0.33, -37.03, -4.76, -61.67
37361, 0.59, -0.52, 0.42, -58.73, -41.51, -61.53
37362, 0.58, -0.53, 0.43, -45.36, -14.00, -54.88
37363, 0.52, -0.72, 0.49, -50.12, -35.28, -68.88
37364, 0.61, -0.88, 0.18, -76.51, -6.72, -56.07
37365, 0.57, -1.05, 0.12, -49.98, 12.11, -12.32
37366, 0.60, -0.94, 0.25, -11.55, 10.01, 41.09
37367, 0.94, -1.10, 0.33, -52.85, 17.29, -18.69
37368, 0.73, -1.23, 0.29, 68.53, 38.43, 11.48
37369, 0.55, -1.02, 0.30, 64.68, 13.93, 24.99
37370, 0.47, -0.82, 0.37, 43.96, 5.74, 26.11
37371, 0.42, -0.62, 0.30, 34.44, -11.76, 23.38
37372, 0.42, -0.67, 0.23, 24.43, -28.21, 19.11
37373, 0.50, -0.71, 0.34, 5.53, -26.60, 23.52
37374, 0.58, -0.72, 0.30, 12.95, -0.63, 39.48
37375, 0.64, -0.69, 0.27, 27.09, 11.34, 50.89
37376, 0.71, -0.71, 0.30, 34.09, 9.24, 57.05
37377, 0.68, -0.69, 0.40, 64.96, 17.78, 72.80
37378, 0.57, -0.55, 0.46, 75.18, 11.97, 94.08
37379, 0.55, -0.48, 0.47, 68.04, 4.13, 92.96
37380, 0.46, -0.68, 0.54, 53.62, 21.91, 65.45
37381, 0.23, -0.71, 0.46, 42.42, 19.32, 83.93
37382, 0.30, -0.71, 0.51, 17.36, 1.47, 87.22
37383, 0.37, -0.70, 0.55, -16.66, 1.54, 72.31
37384, 0.51, -0.94, 0.52, -44.73, -2.80, 45.57
37385, 0.24, -0.96, 0.70, -23.45, -20.44, -10.71
37386, 0.33, -0.85, 0.57, -40.39, -36.26, -35.84
37387, 0.33, -0.90, 0.51, -30.87, -28.28, -58.38
37388, 0.33, -0.91, 0.45, -29.68, -22.68, -60.69
37389, 0.30, -1.02, 0.48, 13.44, -31.22, -47.32
37390, 0.40, -0.88, 0.47, -12.39, -34.16, -56.49
37391, 0.42, -0.92, 0.49, 6.44, 24.99, -38.29
37392, 0.41, -0.71, 0.44, 8.82, 11.41, -44.94
37393, 0.44, -0.60, 0.44, 0.42, -8.26, -63.00
37394, 0.45, -0.56, 0.44, -3.08, -9.31, -63.42
37395, 0.51, -0.53, 0.41, -8.82, -19.25, -63.00
37396, 0.57, -0.58, 0.47, -42.07, -45.22, -66.78
37397, 0.62, -0.61, 0.46, -40.74, -28.63, -44.80
37398, 0.67, -0.64, 0.44, -37.73, -25.55, -14.35
37399, 0.62, -0.57, 0.33, -40.95, -12.46, -11.83
37400, 0.57, -0.58, 0.47, -63.14, -53.41, -32.06
37401, 0.59, -0.82, 0.17, -68.81, -3.92, -30.38
37402, 0.49, -0.95, 0.27, -17.64, -11.27, 2.17
37403, 0.81, -1.09, 0.22, -97.02, -3.64, -27.93
37404, 0.83, -1.36, 0.28, 22.47, 47.88, -10.78
37405, 0.54, -1.09, 0.20, 70.21, 9.03, 34.72
37406, 0.47, -0.88, 0.30, 61.39, 13.79, 33.46
37407, 0.32, -0.63, 0.30, 63.14, -3.64, 14.14
37408, 0.44, -0.65, 0.27, 35.98, -13.86, 3.50
37409, 0.49, -0.73, 0.25, 19.95, -21.98, 8.61
37410, 0.59, -0.74, 0.33, 17.92, -13.72, 24.92
37411, 0.62, -0.71, 0.30, 13.93, 9.87, 41.58
37412, 0.65, -0.74, 0.25, 19.18, 12.95, 44.24
37413, 0.72, -0.76, 0.30, 32.97, 5.53, 48.30
37414, 0.66, -0.67, 0.38, 51.94, 13.72, 65.10
37415, 0.61, -0.57, 0.41, 54.95, 12.53, 69.02
37416, 0.56, -0.53, 0.41, 45.71, 23.59, 72.80
37417, 0.56, -0.59, 0.48, 38.15, 25.48, 70.35
37418, 0.49, -0.70, 0.43, 34.86, 42.42, 57.05
37419, 0.31, -0.75, 0.37, 23.38, 31.29, 70.56
37420, 0.33, -0.72, 0.49, 12.95, 10.08, 79.24
37421, 0.41, -0.86, 0.44, -29.05, 4.97, 60.62
37422, 0.32, -0.93, 0.58, -10.08, 3.50, -0.98
37423, 0.22, -0.88, 0.63, -14.77, -35.07, -38.36
37424, 0.34, -0.91, 0.54, -31.08, -29.19, -48.23
37425, 0.27, -1.07, 0.56, 10.92, -14.49, -37.10
37426, 0.33, -0.85, 0.50, 41.09, -17.15, -21.63
37427, 0.29, -0.92, 0.56, -19.53, 4.55, -36.26
37428, 0.39, -0.86, 0.44, -2.94, -0.91, -47.95
37429, 0.37, -0.70, 0.51, 28.49, -1.33, -54.67
37430, 0.41, -0.61, 0.52, 12.88, -14.07, -74.27
37431, 0.40, -0.57, 0.50, 8.40, -14.14, -78.19
37432, 0.43, -0.62, 0.52, 4.62, -18.06, -71.05
37433, 0.50, -0.67, 0.51, -21.21, -30.80, -65.38
37434, 0.54, -0.62, 0.46, -44.73, -42.14, -59.99
37435, 0.60, -0.63, 0.47, -36.89, -28.14, -36.40
37436, 0.68, -0.60, 0.47, -26.74, -17.92, -12.18
37437, 0.68, -0.56, 0.50, -28.21, -13.02, -8.75
37438, 0.59, -0.62, 0.36, -33.60, -19.95, -21.21
37439, 0.55, -0.69, 0.38, -51.10, -54.04, -17.85
37440, 0.57, -0.81, 0.33, -32.27, -22.33, -5.39
37441, 0.65, -0.96, 0.26, -34.58, -23.52, -26.39
37442, 0.89, -1.14, 0.28, -102.41, 14.49, -29.68
37443, 0.59, -1.18, 0.25, 28.28, 20.86, 21.63
37444, 0.52, -0.92, 0.29, 72.45, 3.15, 30.94
37445, 0.49, -0.74, 0.31, 52.64, -15.89, 8.61
37446, 0.45, -0.64, 0.28, 39.90, -16.45, -12.11
37447, 0.49, -0.67, 0.31, 11.20, -24.57, -22.05
37448, 0.54, -0.76, 0.22, 6.16, -26.53, -10.08
37449, 0.61, -0.79, 0.26, 13.37, -30.38, 5.04
37450, 0.69, -0.77, 0.32, 21.28, -23.73, 18.41
37451, 0.70, -0.73, 0.32, 26.39, -11.13, 24.22
37452, 0.71, -0.76, 0.30, 30.31, -11.20, 30.59
37453, 0.68, -0.73, 0.28, 50.96, -6.23, 41.30
37454, 0.64, -0.67, 0.32, 72.03, -4.97, 49.70
37455, 0.60, -0.57, 0.39, 67.97, -5.32, 51.80
