timestamp,accX,accY,accZ,gyrX,gyrY,gyrZ
0,0.65,-0.35,0.7,0.35,0.0,-0.21
20,0.65,-0.35,0.7,0.77,-0.07,-0.07
40,0.65,-0.35,0.7,0.42,-0.14,0.07
60,0.65,-0.35,0.7,0.49,-0.21,0.14
80,0.65,-0.35,0.7,0.35,-0.14,0.14
100,0.65,-0.35,0.7,0.56,0.0,0.07
120,0.65,-0.35,0.7,0.21,0.14,-0.07
140,0.65,-0.35,0.7,-0.14,0.49,-0.07
160,0.65,-0.35,0.7,0.49,0.14,0.14
180,0.65,-0.35,0.7,0.42,0.49,-0.28
200,0.65,-0.35,0.7,0.35,-0.21,-0.14
220,0.65,-0.35,0.7,0.42,0.0,0.28
240,0.65,-0.35,0.7,0.42,-0.14,0.14
260,0.65,-0.35,0.7,0.21,-0.28,-0.14
280,0.64,-0.35,0.7,0.35,-0.42,0.42
300,0.65,-0.35,0.71,0.63,-0.21,0.21
320,0.65,-0.35,0.7,0.42,-0.49,0.14
340,0.64,-0.35,0.7,0.49,-0.56,0.21
360,0.65,-0.35,0.7,0.77,-0.84,0.35
380,0.64,-0.35,0.7,0.56,-0.63,0.49
400,0.64,-0.35,0.7,0.91,-0.84,0.56
420,0.65,-0.35,0.7,0.7,-0.56,0.49
440,0.64,-0.35,0.7,0.91,-0.77,0.84
460,0.64,-0.35,0.7,0.91,-0.84,0.98
480,0.64,-0.35,0.7,1.19,-1.33,0.7
500,0.64,-0.35,0.7,1.33,-1.68,0.56
520,0.64,-0.35,0.71,1.26,-2.66,0.77
540,0.65,-0.35,0.7,0.42,-2.1,0.56
560,0.65,-0.35,0.7,0.42,-2.38,0.63
580,0.65,-0.35,0.7,-0.07,-2.17,0.56
600,0.64,-0.35,0.7,0.0,-2.24,0.21
620,0.65,-0.35,0.7,-0.14,-2.03,0.21
640,0.65,-0.35,0.7,-0.49,-2.38,0.14
660,0.65,-0.35,0.7,-0.21,-2.45,0.21
680,0.65,-0.35,0.7,-0.21,-2.52,0.07
700,0.65,-0.35,0.7,-0.21,-2.52,0.07
720,0.65,-0.35,0.7,-0.21,-2.1,0.14
740,0.65,-0.35,0.7,-0.14,-2.73,0.0
760,0.65,-0.35,0.7,-0.21,-1.68,0.07
780,0.65,-0.35,0.7,-0.28,-2.03,0.28
800,0.65,-0.35,0.7,-0.28,-1.82,-0.14
820,0.65,-0.35,0.7,-0.14,-1.75,-0.07
840,0.65,-0.35,0.7,-0.07,-2.03,0.28
860,0.65,-0.35,0.7,-0.28,-1.4,-0.14
880,0.65,-0.35,0.7,-0.21,-1.75,0.0
900,0.65,-0.35,0.7,-0.42,-1.68,0.07
920,0.65,-0.35,0.7,0.07,-1.82,0.21
940,0.65,-0.35,0.7,-0.07,-1.82,-0.07
960,0.65,-0.35,0.7,-0.07,-1.82,-0.07
980,0.65,-0.35,0.7,0.07,-1.61,0.21
1000,0.65,-0.35,0.7,0.07,-2.03,0.21
1020,0.65,-0.35,0.7,0.0,-1.4,0.07
1040,0.65,-0.35,0.69,-0.07,-1.4,0.14
1060,0.65,-0.35,0.7,0.0,-1.82,-0.14
1080,0.65,-0.35,0.7,-0.14,-1.26,0.35
1100,0.65,-0.35,0.7,0.35,-1.75,0.28
1120,0.65,-0.35,0.69,0.21,-1.54,-0.21
1140,0.65,-0.35,0.69,0.35,-1.61,0.42
1160,0.65,-0.35,0.7,0.35,-1.68,0.49
1180,0.65,-0.35,0.7,0.21,-1.19,0.28
1200,0.65,-0.35,0.7,0.98,0.35,0.42
1220,0.66,-0.35,0.69,0.28,0.0,0.63
1240,0.65,-0.35,0.69,0.35,0.14,0.35
1260,0.65,-0.35,0.7,0.49,-0.35,0.0
1280,0.65,-0.35,0.7,0.56,-0.42,0.0
1300,0.65,-0.35,0.7,1.26,-0.35,0.35
1320,0.65,-0.35,0.7,0.63,-0.14,0.21
1340,0.65,-0.35,0.69,0.35,-0.21,-0.07
1360,0.65,-0.35,0.7,0.7,0.14,0.14
1380,0.65,-0.35,0.7,0.35,0.0,0.07
1400,0.65,-0.35,0.7,-0.14,0.7,-0.14
1420,0.65,-0.35,0.7,0.42,0.7,-0.14
1440,0.65,-0.35,0.7,0.42,0.28,0.07
1460,0.65,-0.35,0.7,0.84,-0.07,0.28
1480,0.65,-0.35,0.7,0.7,0.0,0.21
1500,0.65,-0.35,0.7,0.63,-0.35,0.14
1520,0.65,-0.35,0.7,0.63,-0.28,0.42
1540,0.65,-0.35,0.7,0.7,0.07,0.14
1560,0.64,-0.35,0.7,0.49,-0.42,0.14
1580,0.65,-0.35,0.7,0.14,-0.49,0.14
1600,0.64,-0.35,0.7,0.49,-0.49,0.21
1620,0.64,-0.35,0.7,0.63,-0.84,0.35
1640,0.64,-0.35,0.7,1.05,-1.19,0.42
1660,0.65,-0.35,0.7,0.7,-0.56,0.49
1680,0.64,-0.35,0.7,1.33,-0.77,1.05
1700,0.65,-0.35,0.7,1.33,-0.84,1.26
1720,0.64,-0.36,0.7,1.47,-1.4,0.7
1740,0.64,-0.35,0.7,1.26,-1.89,0.35
1760,0.64,-0.35,0.71,0.84,-2.73,0.98
1780,0.64,-0.35,0.7,0.91,-2.66,0.98
1800,0.64,-0.35,0.7,0.28,-2.45,0.42
1820,0.64,-0.35,0.7,0.07,-2.38,0.56
1840,0.64,-0.35,0.7,-0.07,-2.87,0.63
1860,0.65,-0.35,0.7,-0.14,-2.38,0.21
1880,0.65,-0.35,0.7,-0.49,-2.45,0.14
1900,0.65,-0.35,0.7,-0.42,-2.94,0.14
1920,0.65,-0.35,0.7,-0.14,-2.73,0.14
1940,0.65,-0.35,0.7,-0.91,-1.96,-0.14
1960,0.65,-0.35,0.7,0.07,-2.59,0.28
1980,0.65,-0.35,0.7,-0.28,-2.03,0.0
2000,0.65,-0.35,0.7,-0.14,-2.03,-0.07
2020,0.65,-0.35,0.7,-0.35,-1.4,0.35
2040,0.65,-0.35,0.7,-0.07,-1.68,-0.07
2060,0.65,-0.35,0.7,-0.28,-1.47,-0.42
2080,0.65,-0.35,0.7,-0.07,-1.54,0.21
2100,0.65,-0.35,0.7,0.14,-1.54,0.42
2120,0.65,-0.35,0.7,-0.21,-1.75,-0.07
2140,0.65,-0.35,0.7,-0.42,-1.4,0.07
2160,0.65,-0.35,0.7,0.07,-1.82,0.42
2180,0.65,-0.35,0.7,0.14,-1.47,0.0
2200,0.65,-0.35,0.69,0.21,-1.96,-0.14
2220,0.65,-0.35,0.7,-0.28,-1.54,0.07
2240,0.65,-0.35,0.7,0.07,-2.17,0.14
2260,0.65,-0.35,0.69,0.14,-1.75,0.14
2280,0.65,-0.35,0.69,0.28,-1.61,0.56
2300,0.65,-0.35,0.7,0.35,-2.38,0.49
2320,0.65,-0.35,0.7,0.28,-1.75,0.56
2340,0.65,-0.35,0.7,-0.07,-1.68,0.49
2360,0.65,-0.35,0.7,-0.07,-1.75,0.21
2380,0.65,-0.35,0.69,0.0,-1.75,-0.07
2400,0.65,-0.35,0.7,0.28,-1.89,0.21
2420,0.65,-0.35,0.7,0.0,-1.61,0.07
2440,0.65,-0.35,0.69,0.21,-1.75,0.14
2460,0.65,-0.35,0.7,0.28,-1.54,0.56
2480,0.66,-0.35,0.69,0.98,-0.35,0.63
2500,0.66,-0.35,0.69,0.42,-0.21,0.14
2520,0.65,-0.35,0.69,0.35,-0.14,0.07
2540,0.65,-0.35,0.69,0.42,-0.21,0.14
2560,0.65,-0.35,0.7,0.21,0.0,-0.07
2580,0.65,-0.35,0.7,0.0,0.35,-0.28
2600,0.65,-0.35,0.69,0.42,0.21,-0.07
2620,0.65,-0.35,0.7,0.35,0.49,-0.14
2640,0.65,-0.35,0.7,0.56,0.35,-0.21
2660,0.65,-0.35,0.7,0.14,0.84,-0.28
2680,0.65,-0.35,0.7,0.21,1.12,-0.63
2700,0.65,-0.35,0.7,0.21,0.56,-0.28
2720,0.65,-0.35,0.7,0.7,0.7,-0.07
2740,0.64,-0.35,0.7,0.7,0.7,0.21
2760,0.65,-0.35,0.7,0.63,0.0,0.14
2780,0.65,-0.35,0.7,0.56,0.14,0.07
2800,0.65,-0.35,0.7,0.84,-0.07,-0.14
2820,0.64,-0.35,0.7,0.42,-0.21,-0.35
2840,0.65,-0.35,0.7,0.0,0.21,-0.14
2860,0.65,-0.35,0.7,0.28,-0.28,0.07
2880,0.64,-0.35,0.7,0.42,-0.21,0.21
2900,0.65,-0.35,0.7,0.56,-0.21,0.42
2920,0.64,-0.35,0.7,0.35,-0.56,0.42
2940,0.64,-0.35,0.7,0.98,-0.91,0.56
2960,0.65,-0.35,0.71,0.91,-0.84,0.84
2980,0.64,-0.35,0.7,1.4,-0.98,0.91
3000,0.64,-0.35,0.7,1.33,-1.54,0.98
3020,0.64,-0.35,0.7,1.05,-1.89,0.7
3040,0.64,-0.35,0.7,1.26,-2.17,0.98
3060,0.64,-0.35,0.7,0.84,-2.17,0.7
3080,0.65,-0.35,0.7,0.7,-2.59,0.63
3100,0.64,-0.35,0.7,0.49,-2.31,0.7
3120,0.64,-0.35,0.7,0.0,-2.52,0.56
3140,0.64,-0.35,0.7,-0.56,-3.43,0.35
3160,0.65,-0.35,0.7,-0.56,-3.36,0.91
3180,0.65,-0.34,0.7,-0.91,-3.64,1.12
3200,0.65,-0.35,0.7,-0.42,-3.78,0.28
3220,0.65,-0.35,0.7,-0.42,-3.01,0.14
3240,0.65,-0.35,0.69,-0.84,-3.15,-0.07
3260,0.65,-0.35,0.7,-0.84,-2.52,-0.28
3280,0.66,-0.35,0.7,-0.84,-1.75,0.07
3300,0.65,-0.35,0.7,-0.42,-1.4,-0.14
3320,0.65,-0.35,0.69,-0.42,-1.54,-0.35
3340,0.65,-0.35,0.69,0.14,-1.68,0.21
3360,0.65,-0.35,0.7,0.28,-1.96,0.35
3380,0.65,-0.35,0.7,-0.14,-1.61,0.14
3400,0.65,-0.35,0.7,0.0,-1.26,0.21
3420,0.65,-0.35,0.7,0.14,-1.4,0.21
3440,0.65,-0.35,0.7,0.07,-1.82,0.14
3460,0.65,-0.35,0.7,-0.07,-1.61,0.07
3480,0.65,-0.35,0.7,0.0,-1.4,0.28
3500,0.65,-0.35,0.69,0.14,-1.75,0.35
3520,0.65,-0.36,0.7,0.42,-2.17,0.42
3540,0.65,-0.35,0.69,0.21,-2.1,0.35
3560,0.65,-0.35,0.69,0.77,-1.96,0.42
3580,0.66,-0.35,0.7,0.35,-1.96,0.77
3600,0.65,-0.35,0.7,0.21,-2.03,0.63
3620,0.65,-0.35,0.69,0.35,-1.89,0.07
3640,0.65,-0.35,0.69,0.28,-2.1,0.07
3660,0.65,-0.35,0.7,0.56,-2.1,0.56
3680,0.66,-0.34,0.7,0.49,-0.63,0.49
3700,0.66,-0.35,0.69,0.28,0.0,-0.21
3720,0.65,-0.35,0.69,0.21,0.91,-0.84
3740,0.66,-0.36,0.69,1.19,1.4,-1.82
3760,0.65,-0.35,0.69,0.07,0.91,-1.19
3780,0.65,-0.35,0.7,-0.28,0.28,0.21
3800,0.65,-0.35,0.7,0.77,0.07,0.28
3820,0.65,-0.35,0.7,1.47,0.07,0.7
3840,0.65,-0.35,0.7,2.1,0.0,0.77
3860,0.65,-0.35,0.7,1.68,-0.14,0.0
3880,0.65,-0.35,0.7,-0.42,1.68,-1.61
3900,0.65,-0.35,0.7,-0.63,1.26,-0.49
3920,0.64,-0.35,0.7,0.42,-0.28,0.77
3940,0.65,-0.34,0.71,0.14,0.63,-17.85
3960,0.65,-0.34,0.71,1.96,-0.21,-0.28
3980,0.64,-0.35,0.71,2.66,-0.7,-1.54
4000,0.65,-0.36,0.7,2.73,-0.7,-3.64
4020,0.65,-0.35,0.69,0.7,2.66,-3.92
4040,0.65,-0.34,0.7,-1.05,1.12,-3.08
4060,0.65,-0.34,0.7,-0.49,0.98,-1.54
4080,0.64,-0.34,0.7,0.56,-0.56,0.21
4100,0.65,-0.35,0.71,2.24,-1.33,0.98
4120,0.64,-0.34,0.71,2.8,-1.89,2.03
4140,0.64,-0.34,0.71,3.5,-2.59,2.52
4160,0.65,-0.33,0.71,2.31,-1.89,2.38
4180,0.65,-0.33,0.71,1.19,-0.98,1.61
4200,0.64,-0.34,0.7,0.91,-1.75,1.05
4220,0.64,-0.35,0.71,0.91,-1.19,0.98
4240,0.64,-0.35,0.71,1.47,-1.61,0.77
4260,0.64,-0.35,0.7,0.84,-2.31,1.33
4280,0.65,-0.35,0.7,0.91,-2.66,1.47
4300,0.65,-0.35,0.7,1.05,-2.94,1.61
4320,0.65,-0.34,0.7,0.56,-2.94,1.05
4340,0.65,-0.35,0.7,0.14,-3.08,0.7
4360,0.65,-0.34,0.7,-0.14,-2.17,0.21
4380,0.65,-0.35,0.7,-0.63,-1.89,-0.14
4400,0.65,-0.34,0.7,-0.77,-1.89,-0.42
4420,0.65,-0.34,0.7,-0.49,-1.4,-0.49
4440,0.65,-0.34,0.7,-0.28,-1.26,-0.63
4460,0.65,-0.34,0.7,-0.28,-0.98,-0.98
4480,0.66,-0.34,0.7,-0.77,-0.56,-1.75
4500,0.65,-0.35,0.69,-0.77,-1.12,-0.7
4520,0.64,-0.34,0.7,-0.21,-1.68,1.26
4540,0.65,-0.34,0.71,0.0,-2.24,1.05
4560,0.65,-0.34,0.7,0.56,-1.89,0.14
4580,0.65,-0.34,0.7,0.42,-2.03,0.14
4600,0.65,-0.34,0.7,0.42,-1.68,0.0
4620,0.65,-0.34,0.7,-0.21,-1.54,-0.28
4640,0.65,-0.34,0.7,-0.14,-1.12,0.0
4660,0.65,-0.34,0.7,-0.56,-1.75,0.28
4680,0.65,-0.35,0.7,0.07,-1.54,0.07
4700,0.65,-0.34,0.7,-0.21,-1.54,-0.42
4720,0.65,-0.34,0.7,0.28,-1.47,-0.84
4740,0.65,-0.35,0.7,0.0,-0.98,-1.19
4760,0.65,-0.35,0.69,-0.98,-0.28,-1.61
4780,0.65,-0.35,0.7,-0.14,-0.49,-0.49
4800,0.65,-0.34,0.7,0.0,-1.4,0.28
4820,0.65,-0.34,0.71,0.91,-1.96,0.56
4840,0.65,-0.34,0.7,0.49,-2.03,0.91
4860,0.65,-0.35,0.7,0.7,-2.31,1.26
4880,0.65,-0.34,0.7,0.84,-2.59,0.98
4900,0.66,-0.34,0.7,1.19,-1.89,0.35
4920,0.65,-0.34,0.7,0.77,-1.89,0.42
4940,0.65,-0.34,0.7,-0.49,-1.82,0.07
4960,0.66,-0.35,0.7,0.07,-1.4,0.35
4980,0.65,-0.34,0.7,0.0,-0.84,0.14
5000,0.66,-0.34,0.7,0.56,0.07,0.21
5020,0.65,-0.35,0.69,0.42,-0.56,0.14
5040,0.65,-0.35,0.69,0.77,-0.63,0.56
5060,0.65,-0.34,0.7,1.12,-1.12,0.56
5080,0.65,-0.34,0.7,1.19,-0.63,0.07
5100,0.66,-0.34,0.69,1.19,0.21,-0.49
5120,0.65,-0.34,0.7,0.56,-0.56,0.49
5140,0.65,-0.33,0.71,0.7,-0.28,1.4
5160,0.65,-0.34,0.71,0.91,-0.07,0.63
5180,0.65,-0.34,0.7,0.98,0.84,-0.84
5200,0.65,-0.34,0.7,0.56,1.19,-1.26
5220,0.65,-0.35,0.7,0.0,1.12,-1.26
5240,0.65,-0.35,0.7,0.07,1.19,-1.4
5260,0.65,-0.34,0.71,-0.35,1.75,-1.75
5280,0.65,-0.34,0.7,-0.7,2.73,-1.47
5300,0.65,-0.34,0.71,0.98,2.52,-0.63
5320,0.65,-0.33,0.71,2.59,2.31,-2.31
5340,0.65,-0.35,0.7,0.14,2.87,-5.18
5360,0.65,-0.34,0.71,-0.56,3.36,-5.6
5380,0.65,-0.34,0.71,-0.63,3.01,-4.13
5400,0.64,-0.34,0.71,-0.84,4.27,-3.08
5420,0.64,-0.33,0.71,-1.12,6.16,-2.38
5440,0.63,-0.33,0.71,-1.61,4.27,-1.47
5460,0.63,-0.33,0.72,-0.49,2.03,0.84
5480,0.63,-0.33,0.72,0.91,-0.63,2.17
5500,0.63,-0.33,0.72,1.61,-2.24,1.75
5520,0.64,-0.32,0.73,1.68,-2.52,1.68
5540,0.64,-0.33,0.72,1.54,-2.03,0.42
5560,0.64,-0.34,0.72,0.21,-2.31,-0.07
5580,0.64,-0.33,0.72,-1.05,-0.28,-1.05
5600,0.65,-0.34,0.72,-0.91,1.33,-1.82
5620,0.64,-0.35,0.71,-0.98,0.91,-1.54
5640,0.62,-0.34,0.71,-0.42,-1.26,0.77
5660,0.62,-0.33,0.71,0.7,-4.41,2.03
5680,0.64,-0.34,0.72,1.82,-4.83,2.8
5700,0.64,-0.33,0.72,2.24,-4.13,2.66
5720,0.64,-0.33,0.72,1.75,-4.34,2.66
5740,0.65,-0.33,0.72,1.61,-2.59,1.75
5760,0.65,-0.33,0.72,-0.21,-0.35,-0.21
5780,0.65,-0.33,0.72,-0.84,2.52,-1.82
5800,0.65,-0.34,0.71,-1.26,2.59,-3.71
5820,0.64,-0.35,0.71,-1.89,3.64,-3.22
5840,0.64,-0.34,0.71,-2.52,2.17,-2.31
5860,0.64,-0.34,0.71,-1.05,2.24,-1.4
5880,0.63,-0.34,0.71,0.56,0.35,0.14
5900,0.63,-0.34,0.71,0.91,-0.91,0.84
5920,0.64,-0.33,0.72,1.54,-1.33,1.26
5940,0.63,-0.33,0.72,1.4,-1.33,1.05
5960,0.64,-0.33,0.73,0.7,-0.49,0.49
5980,0.63,-0.33,0.72,0.35,-0.28,0.0
6000,0.63,-0.33,0.72,0.0,-0.49,-0.77
6020,0.63,-0.34,0.72,-0.77,-0.49,-0.77
6040,0.63,-0.33,0.72,-0.63,-0.42,-0.14
6060,0.63,-0.33,0.72,-0.07,-0.21,-0.49
6080,0.64,-0.33,0.72,1.05,0.14,0.07
6100,0.63,-0.34,0.72,0.84,-0.21,0.91
6120,0.63,-0.33,0.72,1.26,-0.35,0.49
6140,0.63,-0.33,0.72,1.33,-1.47,0.56
6160,0.63,-0.33,0.72,1.68,-0.7,0.84
6180,0.63,-0.34,0.72,1.89,-0.84,1.05
6200,0.63,-0.33,0.72,1.54,-0.77,0.7
6220,0.63,-0.33,0.73,1.26,-0.35,0.56
6240,0.63,-0.33,0.72,1.33,-0.35,0.84
6260,0.63,-0.33,0.72,1.33,-0.7,0.7
6280,0.63,-0.33,0.72,0.77,-0.77,0.49
6300,0.63,-0.33,0.72,1.26,-0.98,0.56
6320,0.63,-0.33,0.72,1.26,-1.19,0.56
6340,0.63,-0.33,0.72,1.33,-1.12,0.49
6360,0.63,-0.33,0.72,1.26,-1.12,0.91
6380,0.63,-0.33,0.72,0.63,-1.82,0.84
6400,0.64,-0.33,0.73,0.98,-0.77,1.12
6420,0.63,-0.33,0.72,0.7,-0.56,0.91
6440,0.63,-0.33,0.72,1.47,-0.21,0.7
6460,0.63,-0.33,0.72,1.19,-0.84,0.77
6480,0.63,-0.33,0.72,0.91,-0.84,0.7
6500,0.63,-0.33,0.72,0.84,-0.84,0.63
6520,0.63,-0.33,0.73,0.63,-0.28,0.28
6540,0.63,-0.33,0.72,1.05,-0.63,0.63
6560,0.63,-0.33,0.72,1.19,-0.28,0.63
6580,0.63,-0.33,0.72,1.47,-0.84,0.35
6600,0.63,-0.34,0.72,1.26,-1.61,0.49
6620,0.63,-0.33,0.73,1.4,-1.54,0.7
6640,0.63,-0.33,0.73,1.19,-1.68,0.63
6660,0.63,-0.34,0.72,0.84,-2.1,0.77
6680,0.62,-0.34,0.73,1.96,-3.85,2.24
6700,0.62,-0.33,0.73,4.27,-6.16,3.99
6720,0.63,-0.33,0.73,4.34,-5.95,4.27
6740,0.62,-0.33,0.72,1.47,-7.56,3.85
6760,0.63,-0.33,0.72,0.77,-8.33,2.8
6780,0.64,-0.33,0.72,0.21,-7.0,2.24
6800,0.64,-0.33,0.72,-0.49,-5.81,2.38
6820,0.64,-0.33,0.71,-1.96,-5.25,1.96
6840,0.65,-0.34,0.71,-2.1,-5.95,2.03
6860,0.64,-0.33,0.72,-3.5,-4.41,3.15
6880,0.65,-0.34,0.72,-4.62,-4.34,2.59
6900,0.63,-0.35,0.71,-1.33,-6.51,3.29
6920,0.64,-0.34,0.71,-1.05,-7.56,2.8
6940,0.66,-0.33,0.71,-2.8,-5.81,1.96
6960,0.65,-0.32,0.71,-3.43,-2.03,1.61
6980,0.64,-0.34,0.71,-3.01,-2.45,0.56
7000,0.65,-0.34,0.7,-3.43,-2.24,-1.4
7020,0.66,-0.35,0.7,-1.82,-1.26,-2.66
7040,0.65,-0.36,0.7,-0.7,-0.77,-3.01
7060,0.64,-0.36,0.69,-0.63,-0.98,-2.45
7080,0.65,-0.35,0.7,-1.26,-0.28,-1.68
7100,0.65,-0.35,0.71,-0.63,-1.12,-0.42
7120,0.65,-0.35,0.7,0.91,-1.75,0.14
7140,0.65,-0.35,0.7,0.63,-2.31,0.21
7160,0.64,-0.34,0.71,1.26,-2.38,0.07
7180,0.65,-0.34,0.71,0.07,-2.87,-0.91
7200,0.65,-0.33,0.7,-1.33,-1.12,-1.54
7220,0.65,-0.33,0.71,-2.31,-0.35,-1.96
7240,0.65,-0.34,0.71,-1.4,0.56,-0.56
7260,0.65,-0.34,0.71,-1.33,1.05,0.0
7280,0.65,-0.34,0.7,-0.98,1.33,0.0
7300,0.65,-0.34,0.7,0.07,1.26,-0.7
7320,0.65,-0.34,0.71,0.42,1.05,-0.42
7340,0.65,-0.34,0.7,1.12,1.26,0.49
7360,0.65,-0.35,0.7,0.98,0.77,0.42
7380,0.65,-0.35,0.7,1.26,0.63,0.35
7400,0.65,-0.34,0.71,1.61,0.56,0.63
7420,0.65,-0.35,0.7,1.47,0.42,1.19
7440,0.64,-0.34,0.71,1.33,0.49,0.84
7460,0.64,-0.35,0.71,0.77,0.91,0.35
7480,0.64,-0.35,0.71,0.63,0.21,0.56
7500,0.64,-0.34,0.71,-0.14,0.77,0.07
7520,0.64,-0.34,0.71,-0.35,0.35,0.0
7540,0.64,-0.34,0.71,0.21,-0.14,0.0
7560,0.64,-0.35,0.71,-0.07,-0.21,-0.49
7580,0.64,-0.35,0.71,-0.28,0.14,-0.35
7600,0.64,-0.35,0.71,-0.14,-0.14,0.14
7620,0.64,-0.34,0.71,-0.14,-0.56,0.14
7640,0.64,-0.34,0.71,-0.14,0.14,0.35
7660,0.64,-0.34,0.71,0.21,-0.35,0.28
7680,0.64,-0.34,0.71,0.14,-0.14,0.07
7700,0.64,-0.34,0.71,0.56,-0.49,0.42
7720,0.64,-0.34,0.71,1.05,-1.05,0.91
7740,0.64,-0.35,0.71,1.82,-1.12,0.98
7760,0.64,-0.34,0.71,1.47,-0.98,0.91
7780,0.63,-0.34,0.71,1.26,-1.75,0.98
7800,0.64,-0.34,0.71,0.91,-1.89,0.63
7820,0.64,-0.34,0.71,0.28,-1.89,0.7
7840,0.64,-0.34,0.72,0.49,-2.17,0.84
7860,0.64,-0.35,0.71,0.14,-1.68,0.35
7880,0.64,-0.35,0.71,-0.07,-1.54,0.35
7900,0.63,-0.35,0.71,0.49,-2.24,0.63
7920,0.64,-0.34,0.71,-0.07,-2.52,0.14
7940,0.64,-0.34,0.71,-0.28,-2.38,0.07
7960,0.64,-0.34,0.71,-0.42,-2.59,0.63
7980,0.64,-0.35,0.71,-0.49,-2.03,-0.07
8000,0.64,-0.34,0.71,0.21,-2.45,0.07
8020,0.65,-0.34,0.71,0.0,-2.45,0.28
8040,0.64,-0.35,0.71,0.07,-2.31,0.21
8060,0.64,-0.34,0.71,0.07,-2.24,0.07
8080,0.64,-0.34,0.71,-0.14,-1.89,0.14
8100,0.64,-0.34,0.71,0.07,-2.17,0.35
8120,0.65,-0.34,0.71,-0.49,-1.54,0.14
8140,0.64,-0.35,0.71,-0.14,-2.31,0.21
8160,0.64,-0.34,0.71,0.14,-2.17,0.07
8180,0.64,-0.35,0.71,0.14,-1.68,0.14
8200,0.65,-0.35,0.71,0.21,-1.4,0.07
8220,0.64,-0.34,0.71,-0.28,-1.4,-0.07
8240,0.64,-0.34,0.71,-0.07,-1.33,-0.21
8260,0.64,-0.35,0.71,-0.35,-1.4,0.21
8280,0.65,-0.35,0.71,-0.28,-1.12,0.0
8300,0.64,-0.34,0.7,-0.14,-1.4,-0.35
8320,0.64,-0.35,0.71,-0.28,-1.61,0.21
8340,0.64,-0.35,0.71,0.63,-1.96,0.42
8360,0.64,-0.34,0.71,0.28,-1.82,0.14
8380,0.65,-0.35,0.7,0.42,-1.54,0.28
8400,0.65,-0.34,0.71,0.07,-1.61,0.35
8420,0.65,-0.35,0.7,0.21,-1.61,0.21
8440,0.64,-0.34,0.71,-0.14,-1.82,0.07
8460,0.65,-0.35,0.71,0.21,-1.68,0.07
8480,0.64,-0.35,0.7,0.21,-1.75,0.35
8500,0.65,-0.35,0.7,0.63,-1.89,0.49
8520,0.65,-0.35,0.71,0.49,-1.96,0.56
8540,0.65,-0.34,0.71,0.77,-0.49,0.42
8560,0.65,-0.34,0.7,0.28,0.21,0.56
8580,0.65,-0.35,0.7,0.14,0.07,0.35
8600,0.64,-0.35,0.7,0.35,-0.35,-0.28
8620,0.65,-0.34,0.71,0.56,-0.35,-0.14
8640,0.65,-0.35,0.71,0.7,-0.49,0.35
8660,0.65,-0.35,0.71,0.56,-0.21,0.42
8680,0.64,-0.35,0.7,0.84,-0.35,0.28
8700,0.64,-0.34,0.71,0.63,-0.21,0.28
8720,0.64,-0.34,0.71,0.63,0.0,0.28
8740,0.64,-0.34,0.71,0.28,-0.07,-0.14
8760,0.64,-0.34,0.71,0.21,-0.14,-0.07
8780,0.64,-0.34,0.71,0.63,-0.42,0.21
8800,0.64,-0.34,0.71,0.56,-0.42,-0.07
8820,0.64,-0.35,0.71,0.56,-0.21,0.21
8840,0.65,-0.34,0.71,0.07,-0.77,0.14
8860,0.64,-0.34,0.71,0.56,-0.7,0.42
8880,0.64,-0.35,0.71,0.28,-0.49,0.42
8900,0.64,-0.35,0.71,0.77,-0.56,0.21
8920,0.64,-0.34,0.71,0.77,-0.84,0.21
8940,0.64,-0.34,0.71,0.7,-1.26,0.49
8960,0.64,-0.35,0.71,0.98,-0.7,0.63
8980,0.64,-0.34,0.71,0.77,-1.05,0.42
9000,0.64,-0.34,0.71,1.05,-0.84,0.56
9020,0.64,-0.34,0.71,1.05,-0.63,0.77
9040,0.64,-0.34,0.71,0.98,-0.84,0.7
9060,0.64,-0.34,0.71,1.19,-0.84,0.63
9080,0.64,-0.34,0.71,1.4,-0.91,0.91
9100,0.64,-0.35,0.71,1.26,-1.4,0.49
9120,0.64,-0.35,0.71,0.77,-1.47,0.28
9140,0.64,-0.34,0.71,1.12,-1.75,0.28
9160,0.64,-0.34,0.71,0.21,-1.54,0.28
9180,0.64,-0.34,0.71,0.21,-1.89,0.63
9200,0.64,-0.35,0.71,-0.21,-1.75,0.42
9220,0.64,-0.34,0.71,-0.14,-1.96,0.0
9240,0.64,-0.34,0.71,0.14,-2.31,0.14
9260,0.64,-0.35,0.71,-0.14,-2.17,0.21
9280,0.64,-0.35,0.71,0.07,-2.59,0.42
9300,0.64,-0.34,0.71,-0.07,-2.52,0.14
9320,0.64,-0.35,0.71,0.14,-2.45,0.35
9340,0.65,-0.34,0.71,0.21,-2.03,0.21
9360,0.64,-0.34,0.71,-0.14,-1.61,0.0
9380,0.64,-0.34,0.7,0.14,-2.03,0.28
9400,0.65,-0.34,0.71,0.49,-2.17,0.42
9420,0.65,-0.34,0.71,-0.07,-2.03,0.07
9440,0.64,-0.35,0.71,-0.42,-1.54,0.0
9460,0.64,-0.34,0.71,0.07,-1.89,0.07
9480,0.65,-0.34,0.7,-0.21,-1.4,-0.07
9500,0.65,-0.34,0.7,-0.21,-1.19,0.28
9520,0.64,-0.35,0.71,0.14,-1.61,0.35
9540,0.64,-0.34,0.71,0.14,-1.47,0.14
9560,0.64,-0.34,0.71,0.0,-1.89,0.07
9580,0.64,-0.35,0.71,0.56,-1.68,0.35
9600,0.65,-0.34,0.71,0.28,-1.4,0.0
9620,0.64,-0.34,0.7,-0.14,-1.33,-0.14
9640,0.65,-0.35,0.71,-0.42,-1.19,0.07
9660,0.65,-0.34,0.7,0.0,-1.05,0.21
9680,0.64,-0.35,0.71,0.28,-1.61,0.0
9700,0.65,-0.34,0.7,0.42,-1.68,0.14
9720,0.65,-0.34,0.7,0.63,-1.82,0.35
9740,0.65,-0.34,0.7,0.28,-1.47,0.14
9760,0.65,-0.35,0.7,0.28,-1.54,0.49
9780,0.65,-0.34,0.71,0.21,-1.54,0.14
9800,0.65,-0.34,0.7,0.21,-1.4,0.21
9820,0.65,-0.35,0.7,0.21,-1.05,0.42
9840,0.64,-0.35,0.71,0.21,-1.54,0.21
9860,0.65,-0.34,0.7,0.07,-1.61,0.0
9880,0.65,-0.34,0.7,0.35,-1.89,0.28
9900,0.65,-0.34,0.71,0.56,-1.26,0.63
9920,0.65,-0.34,0.7,0.56,-0.49,0.56
9940,0.65,-0.35,0.7,0.07,-0.28,0.49
9960,0.64,-0.35,0.7,0.49,-0.63,0.28
9980,0.65,-0.34,0.71,0.42,-0.35,0.0
10000,0.65,-0.34,0.7,0.56,-0.63,0.07
10020,0.65,-0.34,0.7,0.49,-0.7,0.14
10040,0.65,-0.34,0.7,0.84,-0.56,0.0
10060,0.65,-0.34,0.7,0.49,-0.42,0.0
10080,0.65,-0.35,0.71,0.35,-0.07,0.14
10100,0.64,-0.34,0.71,0.49,-0.21,0.0
10120,0.65,-0.34,0.71,0.49,-0.21,-0.14
10140,0.64,-0.35,0.71,0.14,0.0,0.28
10160,0.65,-0.34,0.71,0.21,-0.07,0.14
10180,0.65,-0.34,0.71,0.35,-0.07,-0.07
10200,0.64,-0.35,0.71,0.49,-0.42,0.07
10220,0.65,-0.34,0.71,0.35,0.28,0.14
10240,0.64,-0.34,0.71,-0.07,-0.14,0.0
10260,0.64,-0.34,0.71,0.56,0.0,0.14
10280,0.64,-0.35,0.71,0.28,0.07,0.14
10300,0.64,-0.34,0.71,0.7,0.07,0.42
10320,0.64,-0.34,0.71,0.35,-0.35,0.07
10340,0.64,-0.34,0.71,0.14,-0.35,0.0
10360,0.64,-0.34,0.71,0.77,-0.42,0.42
10380,0.64,-0.34,0.71,-0.07,-0.35,0.84
10400,0.64,-0.34,0.71,0.42,0.0,1.96
10420,0.64,-0.34,0.71,1.12,-1.26,0.98
10440,0.64,-0.34,0.71,0.84,-1.19,0.77
10460,0.64,-0.35,0.71,0.7,-1.54,1.61
10480,0.63,-0.35,0.71,1.19,-2.59,1.54
10500,0.64,-0.35,0.71,0.98,-2.45,0.77
10520,0.64,-0.34,0.71,-0.28,-2.59,0.49
10540,0.64,-0.35,0.71,0.14,-2.94,0.56
10560,0.64,-0.35,0.71,0.28,-3.36,0.56
10580,0.64,-0.35,0.71,0.21,-2.73,0.63
10600,0.64,-0.35,0.71,0.91,-2.87,0.98
10620,0.64,-0.35,0.71,0.14,-2.66,0.21
10640,0.64,-0.34,0.71,-0.28,-2.59,0.0
10660,0.64,-0.34,0.71,-0.07,-2.17,0.21
10680,0.65,-0.34,0.71,-0.49,-2.1,0.0
10700,0.65,-0.34,0.71,-0.63,-1.75,-0.07
10720,0.64,-0.34,0.7,-0.07,-1.89,0.0
10740,0.65,-0.34,0.7,-0.14,-1.61,-0.42
10760,0.65,-0.34,0.71,-0.28,-1.4,0.14
10780,0.64,-0.35,0.71,-0.42,-1.47,0.21
10800,0.65,-0.35,0.7,-0.28,-1.05,-0.35
10820,0.65,-0.35,0.7,0.14,-1.4,0.0
10840,0.64,-0.35,0.71,-0.14,-1.61,0.14
10860,0.64,-0.35,0.71,0.0,-1.33,0.0
10880,0.64,-0.35,0.71,0.0,-1.68,0.0
10900,0.64,-0.34,0.71,-0.35,-1.19,0.0
10920,0.64,-0.34,0.71,-0.21,-1.54,0.21
10940,0.65,-0.35,0.71,-0.14,-1.96,-0.07
10960,0.65,-0.35,0.7,-0.28,-1.54,-0.14
10980,0.65,-0.34,0.7,-0.21,-1.54,0.28
11000,0.65,-0.35,0.71,-0.28,-1.61,0.28
11020,0.64,-0.35,0.7,0.0,-1.89,0.07
11040,0.65,-0.35,0.71,-0.35,-1.89,0.14
11060,0.65,-0.35,0.71,0.14,-2.1,0.42
11080,0.65,-0.35,0.7,0.0,-1.54,0.7
11100,0.65,-0.35,0.7,0.07,-2.1,0.56
11120,0.65,-0.34,0.7,0.14,-1.47,0.28
11140,0.65,-0.34,0.7,0.63,-1.54,0.7
11160,0.65,-0.35,0.7,0.56,-1.96,0.63
11180,0.65,-0.35,0.7,0.35,-1.61,0.35
11200,0.65,-0.35,0.7,0.14,-1.61,0.42
11220,0.65,-0.35,0.7,0.14,-1.89,0.35
11240,0.65,-0.35,0.7,-0.42,-1.68,0.07
11260,0.65,-0.35,0.7,0.07,-1.75,0.07
11280,0.65,-0.35,0.7,0.21,-2.03,0.56
11300,0.65,-0.34,0.71,1.19,-0.35,0.77
11320,0.65,-0.34,0.7,0.21,-0.56,0.42
11340,0.65,-0.35,0.7,-0.14,-0.07,0.0
11360,0.65,-0.35,0.7,0.28,-0.63,-0.14
11380,0.65,-0.34,0.7,0.49,-0.42,0.14
11400,0.65,-0.35,0.7,0.14,-0.28,0.07
11420,0.65,-0.35,0.7,0.56,-0.35,-0.07
11440,0.64,-0.34,0.7,0.49,-0.49,0.07
11460,0.65,-0.35,0.7,0.7,-0.35,0.49
11480,0.65,-0.35,0.71,0.42,-0.07,0.0
11500,0.64,-0.34,0.7,0.35,0.14,-0.28
11520,0.65,-0.35,0.71,0.07,0.42,-0.07
11540,0.64,-0.35,0.7,-0.35,0.07,-0.35
11560,0.65,-0.34,0.7,-0.07,-0.14,-0.28
11580,0.64,-0.35,0.7,0.28,0.14,-0.07
11600,0.64,-0.35,0.71,0.42,0.07,-0.07
11620,0.64,-0.35,0.71,0.56,-0.14,0.21
11640,0.64,-0.35,0.71,0.28,0.0,0.14
11660,0.64,-0.35,0.71,0.56,0.0,0.21
11680,0.64,-0.35,0.71,0.84,-0.7,0.35
11700,0.64,-0.35,0.71,0.42,-0.28,0.49
11720,0.64,-0.35,0.71,0.49,-0.49,0.49
11740,0.64,-0.34,0.71,0.77,-0.35,0.14
11760,0.64,-0.34,0.71,0.49,-0.63,0.56
11780,0.64,-0.35,0.71,0.56,-0.77,0.56
11800,0.64,-0.35,0.71,0.63,-0.63,0.49
11820,0.64,-0.35,0.71,0.56,-0.77,0.56
11840,0.64,-0.35,0.71,1.26,-1.4,0.77
11860,0.64,-0.34,0.7,0.98,-0.91,0.84
11880,0.64,-0.35,0.71,0.98,-1.33,0.63
11900,0.64,-0.35,0.71,0.91,-1.96,0.49
11920,0.64,-0.35,0.71,0.77,-1.96,0.42
11940,0.64,-0.35,0.71,0.7,-2.17,0.42
11960,0.64,-0.35,0.7,0.42,-2.1,0.49
11980,0.64,-0.34,0.71,0.42,-2.1,0.28
12000,0.65,-0.34,0.71,-0.14,-1.68,0.28
12020,0.64,-0.35,0.71,-0.14,-1.96,0.35
12040,0.64,-0.35,0.71,-0.28,-1.82,-0.07
12060,0.64,-0.34,0.71,0.0,-2.1,0.21
12080,0.65,-0.35,0.71,-0.21,-2.31,0.35
12100,0.64,-0.35,0.71,0.0,-2.17,0.07
12120,0.64,-0.34,0.7,-0.14,-2.17,0.0
12140,0.65,-0.35,0.7,-0.49,-1.54,0.21
12160,0.65,-0.35,0.71,0.07,-1.75,0.21
12180,0.64,-0.35,0.71,-0.35,-1.19,0.14
12200,0.64,-0.34,0.7,0.0,-1.82,0.28
12220,0.65,-0.35,0.71,0.28,-1.82,0.14
12240,0.64,-0.35,0.7,-0.14,-1.96,0.07
12260,0.65,-0.35,0.71,0.0,-1.82,0.21
12280,0.64,-0.35,0.71,0.14,-1.33,0.07
12300,0.65,-0.35,0.71,-0.14,-1.47,0.07
12320,0.64,-0.35,0.71,-0.49,-1.47,0.7
12340,0.64,-0.35,0.7,0.0,-2.17,0.21
12360,0.64,-0.35,0.7,0.14,-1.68,-0.14
12380,0.65,-0.35,0.7,0.56,-2.31,0.42
12400,0.65,-0.35,0.7,0.28,-1.89,0.28
12420,0.64,-0.35,0.7,-0.07,-1.82,0.14
12440,0.65,-0.35,0.7,-0.21,-1.82,0.28
12460,0.65,-0.35,0.7,0.07,-1.26,0.56
12480,0.64,-0.35,0.7,-0.07,-1.61,0.42
12500,0.65,-0.35,0.7,0.0,-1.82,0.07
12520,0.65,-0.35,0.7,0.07,-1.61,0.21
12540,0.65,-0.35,0.7,0.35,-2.1,0.49
12560,0.65,-0.35,0.7,0.28,-1.68,0.77
12580,0.65,-0.35,0.7,-0.28,-1.61,1.05
12600,0.64,-0.34,0.7,-0.14,-2.52,1.89
12620,0.65,-0.34,0.71,0.0,-2.03,1.61
12640,0.65,-0.35,0.7,0.07,-1.61,1.12
12660,0.64,-0.35,0.7,-1.26,-2.03,0.21
12680,0.65,-0.35,0.7,0.0,-1.75,0.42
12700,0.65,-0.35,0.7,0.14,-1.54,0.84
12720,0.65,-0.35,0.7,-0.28,-1.68,0.63
12740,0.65,-0.35,0.7,0.28,-1.61,0.21
12760,0.65,-0.35,0.7,0.63,-0.42,0.21
12780,0.65,-0.35,0.7,0.63,-0.56,0.28
12800,0.65,-0.35,0.7,-0.28,-0.35,0.14
12820,0.65,-0.35,0.7,0.28,-0.07,-0.28
12840,0.65,-0.35,0.7,0.21,0.28,-0.84
12860,0.64,-0.35,0.7,-17.92,0.49,-0.77
12880,0.65,-0.35,0.7,0.14,0.35,-0.7
12900,0.65,-0.35,0.71,-0.07,0.7,-0.91
12920,0.65,-0.35,0.7,-0.21,0.98,-0.7
12940,0.65,-0.35,0.7,-0.07,1.33,-0.42
12960,0.64,-0.35,0.7,-0.07,1.05,-0.84
12980,0.64,-0.35,0.7,0.0,1.12,-1.19
13000,0.64,-0.35,0.71,-0.14,0.7,-1.05
13020,0.65,-0.35,0.71,0.07,0.98,-0.56
13040,0.64,-0.35,0.71,-17.36,1.68,-0.56
13060,0.64,-0.35,0.71,0.14,1.96,-1.4
13080,0.64,-0.35,0.7,-0.14,1.33,-0.77
13100,0.64,-0.35,0.71,0.14,0.91,0.0
13120,0.64,-0.35,0.71,0.84,0.35,0.0
13140,0.64,-0.35,0.71,1.33,0.21,0.21
13160,0.64,-0.35,0.71,1.4,0.21,0.28
13180,0.64,-0.35,0.71,1.33,0.14,0.14
13200,0.64,-0.35,0.71,0.63,0.56,0.0
13220,0.64,-0.35,0.71,0.77,0.21,-0.21
13240,0.64,-0.35,0.71,0.35,0.28,0.07
13260,0.64,-0.35,0.71,0.07,0.14,0.07
13280,0.64,-0.35,0.71,0.35,0.14,-0.07
13300,0.64,-0.35,0.71,0.98,-0.35,0.28
13320,0.64,-0.35,0.71,0.49,17.85,0.35
13340,0.64,-0.34,0.71,1.19,-0.14,0.35
13360,0.64,-0.34,0.72,0.35,0.0,0.14
13380,0.63,-0.34,0.71,0.28,0.07,0.42
13400,0.63,-0.35,0.71,0.91,-0.49,0.56
13420,0.63,-0.35,0.71,0.63,-1.05,0.28
13440,0.63,-0.35,0.72,0.35,-1.47,0.21
13460,0.63,-0.35,0.72,0.42,-1.82,0.49
13480,0.63,-0.35,0.72,0.28,-2.1,0.7
13500,0.63,-0.35,0.71,0.21,-2.17,0.63
13520,0.63,-0.35,0.72,0.0,-2.31,0.63
13540,0.64,-0.35,0.71,0.21,-2.45,0.7
13560,0.64,-0.35,0.71,-0.14,-2.24,0.49
13580,0.64,-0.35,0.71,-17.85,-2.8,0.49
13600,0.64,-0.34,0.71,-0.28,-2.52,0.21
13620,0.64,-0.35,0.71,-0.49,-2.73,0.35
13640,0.64,-0.35,0.71,-0.07,-2.94,0.77
13660,0.64,-0.35,0.71,0.0,-2.94,0.49
13680,0.64,-0.35,0.71,0.14,-2.59,0.42
13700,0.64,-0.35,0.71,0.35,-3.22,0.7
13720,0.64,-0.35,0.71,0.21,-2.59,0.49
13740,0.64,-0.34,0.7,0.35,-2.31,0.28
13760,0.64,-0.35,0.71,0.49,-2.59,0.07
13780,0.65,-0.35,0.71,0.07,-2.31,-0.14
13800,0.64,-0.35,0.71,-0.07,-2.38,0.14
13820,0.64,-0.35,0.71,0.42,-2.52,0.21
13840,0.64,-0.35,0.7,-0.07,-2.24,0.14
13860,0.64,-0.35,0.71,0.21,-2.8,0.35
13880,0.64,-0.35,0.71,0.21,-2.1,0.49
13900,0.64,-0.35,0.71,0.49,-1.68,-0.35
13920,0.64,-0.35,0.7,0.84,-1.96,0.21
13940,0.64,-0.35,0.71,1.05,-1.82,0.42
13960,0.65,-0.35,0.71,0.63,-2.1,0.35
13980,0.64,-0.35,0.71,0.56,-2.03,0.0
14000,0.64,-0.35,0.7,0.21,-1.19,0.56
14020,0.64,-0.35,0.71,0.49,-2.1,0.77
14040,0.65,-0.35,0.71,0.28,-1.68,0.35
14060,0.64,-0.35,0.71,0.28,-2.1,0.0
14080,0.65,-0.35,0.71,-0.14,-1.47,-0.35
14100,0.64,-0.35,0.71,-0.14,-1.19,-0.42
14120,0.64,-0.35,0.7,-0.07,-1.96,0.14
14140,0.64,-0.35,0.7,0.0,-1.89,-0.07
14160,0.65,-0.35,0.7,0.21,-2.45,0.28
14180,0.65,-0.35,0.7,0.77,-2.45,1.05
14200,0.65,-0.35,0.7,1.05,-2.24,0.91
14220,0.64,-0.35,0.7,0.7,-2.59,0.42
14240,0.65,-0.34,0.7,0.49,-2.31,0.42
14260,0.64,-0.35,0.7,0.7,-2.38,0.77
14280,0.65,-0.35,0.7,0.35,-1.96,0.63
14300,0.65,-0.35,0.71,0.77,-1.54,0.42
14320,0.65,-0.34,0.71,1.61,0.07,0.91
14340,0.65,-0.35,0.7,0.35,-0.35,0.77
14360,0.64,-0.35,0.7,0.42,-0.91,0.42
14380,0.65,-0.35,0.7,0.49,-1.12,0.28
14400,0.65,-0.35,0.71,0.56,-0.91,0.42
14420,0.65,-0.34,0.7,0.56,-0.35,0.49
14440,0.65,-0.35,0.7,0.84,0.0,0.49
14460,0.65,-0.35,0.7,1.12,-0.35,0.49
14480,0.65,-0.35,0.7,0.98,-0.56,0.14
14500,0.65,-0.35,0.71,0.63,0.0,0.49
14520,0.64,-0.35,0.71,0.49,-0.14,0.42
14540,0.64,-0.35,0.7,0.7,-0.21,-0.14
14560,0.65,-0.35,0.7,0.63,0.0,0.07
14580,0.65,-0.35,0.71,0.7,0.35,0.0
14600,0.64,-0.35,0.7,0.7,-0.42,-0.07
14620,0.64,-0.34,0.7,0.7,-0.63,0.28
14640,0.65,-0.35,0.71,0.49,-0.14,0.35
14660,0.64,-0.35,0.71,1.12,0.07,0.21
14680,0.64,-0.34,0.71,0.35,-0.21,-0.28
14700,0.65,-0.34,0.71,-0.07,0.84,-0.49
14720,0.65,-0.34,0.71,0.14,1.47,-1.12
14740,0.64,-0.35,0.71,1.26,0.98,-2.45
14760,0.64,-0.35,0.7,1.61,1.33,-4.06
14780,0.64,-0.35,0.7,0.35,1.26,-3.64
14800,0.64,-0.35,0.71,0.21,-0.14,-1.33
14820,0.64,-0.34,0.71,0.63,-0.28,0.77
14840,0.63,-0.34,0.71,1.82,-1.4,0.14
14860,0.63,-0.35,0.71,1.61,-2.45,-0.21
14880,0.64,-0.34,0.71,1.26,-3.15,0.42
14900,0.64,-0.34,0.72,1.89,-3.64,0.42
14920,0.64,-0.34,0.71,0.21,-3.57,0.14
14940,0.64,-0.33,0.71,-0.14,-3.15,-0.35
14960,0.64,-0.34,0.71,0.98,-4.13,-0.21
14980,0.64,-0.35,0.71,2.03,-5.11,0.21
15000,0.64,-0.35,0.71,4.76,-6.02,1.12
15020,0.65,-0.33,0.71,2.52,-6.44,2.59
15040,0.65,-0.33,0.71,2.24,-4.2,2.8
15060,0.64,-0.34,0.71,2.94,-5.39,2.94
15080,0.65,-0.33,0.71,2.31,-3.43,1.75
15100,0.66,-0.33,0.71,0.91,-2.87,0.35
15120,0.65,-0.33,0.71,0.28,-2.38,-0.21
15140,0.65,-0.34,0.7,-0.35,-1.82,-0.28
15160,0.66,-0.34,0.71,0.0,-1.19,-0.63
15180,0.65,-0.34,0.7,-0.28,-0.56,-0.84
15200,0.65,-0.34,0.7,0.63,-2.1,1.05
15220,0.66,-0.35,0.7,1.47,-3.92,3.5
15240,0.63,-0.35,0.7,3.08,-8.68,7.77
15260,0.65,-0.32,0.72,1.47,-6.79,7.07
15280,0.65,-0.32,0.71,1.89,-4.69,4.27
15300,0.65,-0.35,0.7,0.91,-6.37,2.31
15320,0.66,-0.34,0.69,-1.12,-3.01,-0.21
15340,0.65,-0.34,0.69,-0.14,-2.94,-0.14
15360,0.67,-0.34,0.7,-0.56,-1.96,-0.63
15380,0.67,-0.35,0.69,-2.03,-0.21,-0.98
15400,0.66,-0.35,0.69,-1.82,-0.91,0.63
15420,0.66,-0.34,0.7,-1.75,-0.14,0.77
15440,0.66,-0.35,0.69,0.0,-1.4,0.91
15460,0.66,-0.35,0.69,0.14,-0.98,0.63
15480,0.67,-0.34,0.69,0.35,0.14,-0.98
15500,0.66,-0.34,0.7,-0.42,-0.07,-1.4
15520,0.66,-0.34,0.7,-0.14,1.54,-1.33
15540,0.66,-0.34,0.7,-1.54,1.89,-1.12
15560,0.65,-0.34,0.69,-1.82,2.24,-0.77
15580,0.65,-0.34,0.7,-1.19,1.89,-1.26
15600,0.65,-0.35,0.7,-0.56,1.68,-0.98
15620,0.65,-0.34,0.7,0.0,1.89,-0.91
15640,0.65,-0.34,0.7,0.0,0.63,-0.91
15660,0.65,-0.34,0.7,-0.21,1.05,-0.91
15680,0.65,-0.34,0.7,0.0,0.98,-0.63
15700,0.65,-0.35,0.7,0.28,0.7,-0.35
15720,0.65,-0.34,0.7,0.35,0.56,-0.07
15740,0.65,-0.34,0.7,0.35,0.77,-0.7
15760,0.65,-0.35,0.71,1.12,0.07,-0.84
15780,0.65,-0.34,0.71,17.78,0.7,-0.42
15800,0.65,-0.34,0.71,0.56,0.49,-0.98
15820,0.65,-0.33,0.71,0.56,1.12,-1.26
15840,0.65,-0.34,0.71,0.49,1.75,-2.1
15860,0.65,-0.35,0.7,1.19,1.89,-3.43
15880,0.65,-0.34,0.7,0.77,3.08,-2.45
15900,0.64,-0.34,0.71,0.35,1.33,-0.84
15920,0.65,-0.33,0.71,0.84,1.54,-0.28
15940,0.64,-0.33,0.71,1.26,0.91,0.21
15960,0.64,-0.33,0.71,1.75,0.35,0.28
15980,0.64,-0.33,0.71,2.59,-0.07,0.84
16000,0.64,-0.33,0.72,3.29,-1.54,1.75
16020,0.64,-0.33,0.72,2.59,-1.54,1.82
16040,0.64,-0.33,0.71,2.38,-1.89,2.03
16060,0.64,-0.34,0.71,1.89,-2.1,1.75
16080,0.64,-0.34,0.71,2.1,-2.8,1.61
16100,0.64,-0.34,0.72,1.47,-2.52,1.68
16120,0.64,-0.34,0.71,0.21,-2.52,1.12
16140,0.64,-0.33,0.71,-0.07,-3.36,0.84
16160,0.65,-0.34,0.71,-0.14,-3.64,0.84
16180,0.65,-0.34,0.71,-0.07,-3.22,0.91
16200,0.64,-0.34,0.71,0.14,-3.71,0.84
16220,0.65,-0.34,0.71,-0.14,-3.22,0.56
16240,0.65,-0.34,0.71,0.63,-3.36,0.49
16260,0.65,-0.34,0.71,0.14,-2.66,-0.07
16280,0.65,-0.33,0.71,-0.14,-2.66,0.21
16300,0.65,-0.33,0.71,0.49,-2.73,0.42
16320,0.65,-0.34,0.71,0.28,-2.31,0.35
16340,0.65,-0.34,0.7,0.84,-2.8,0.35
16360,0.65,-0.34,0.71,-0.14,-1.96,0.0
16380,0.65,-0.33,0.7,0.0,-1.68,-0.21
16400,0.65,-0.34,0.7,-0.21,-0.98,-0.07
16420,0.65,-0.34,0.71,-0.14,-1.4,-0.07
16440,0.65,-0.34,0.71,-0.28,-1.33,-0.42
16460,0.65,-0.33,0.7,-0.28,-1.05,-0.42
16480,0.65,-0.34,0.71,0.14,-1.61,0.21
16500,0.65,-0.34,0.71,-17.92,-1.54,-0.14
16520,0.65,-0.33,0.71,-0.14,-1.33,-0.21
16540,0.65,-0.33,0.7,-0.28,-1.33,-0.14
16560,0.65,-0.34,0.71,-0.21,-1.61,0.07
16580,0.65,-0.34,0.71,-0.35,-1.26,-0.07
16600,0.65,-0.34,0.71,0.14,-1.82,0.21
16620,0.65,-0.34,0.71,0.56,-1.47,0.28
16640,0.65,-0.34,0.7,0.91,-1.68,0.56
16660,0.65,-0.34,0.7,0.42,-1.82,0.28
16680,0.65,-0.33,0.7,0.35,-1.75,0.21
16700,0.65,-0.34,0.71,0.63,-1.61,0.14
16720,0.65,-0.34,0.71,0.21,-1.33,0.49
16740,0.65,-0.34,0.7,0.42,-1.61,0.28
16760,0.65,-0.34,0.7,0.49,-1.75,0.28
16780,0.65,-0.34,0.7,0.56,-1.89,0.7
16800,0.65,-0.34,0.71,0.98,-1.4,0.77
16820,0.66,-0.33,0.7,1.96,-0.21,0.98
16840,0.66,-0.34,0.7,0.56,-0.35,0.77
16860,0.65,-0.34,0.7,0.77,-0.42,0.7
16880,0.65,-0.34,0.71,0.42,-0.35,0.07
16900,0.66,-0.33,0.7,0.21,-0.49,-0.14
16920,0.65,-0.34,0.7,0.42,-0.49,0.21
16940,0.65,-0.33,0.7,0.14,-0.56,0.14
16960,0.65,-0.34,0.7,0.7,-0.49,0.28
16980,0.65,-0.34,0.7,0.77,0.0,0.28
17000,0.65,-0.33,0.7,0.98,0.07,0.35
17020,0.65,-0.33,0.71,0.56,0.28,0.14
17040,0.65,-0.34,0.71,-0.21,0.28,0.0
17060,0.65,-0.33,0.71,0.14,0.56,-0.21
17080,0.65,-0.34,0.71,0.21,0.07,-0.35
17100,0.65,-0.34,0.71,0.91,-0.42,-0.21
17120,0.66,-0.32,0.71,1.82,0.42,0.21
17140,0.63,-0.34,0.7,4.34,-1.26,0.56
17160,0.61,-0.37,0.7,6.51,-7.7,0.77
17180,0.66,-0.35,0.72,5.81,-6.44,-0.63
17200,0.68,-0.31,0.72,1.75,1.05,-2.59
17220,0.65,-0.32,0.7,-0.56,0.98,-0.84
17240,0.65,-0.32,0.7,-2.31,2.31,-1.26
17260,0.65,-0.33,0.7,-2.45,1.33,-1.19
17280,0.66,-0.33,0.71,-2.38,2.52,-2.17
17300,0.66,-0.33,0.71,-1.82,3.08,-2.52
17320,0.65,-0.32,0.71,-2.1,4.06,-1.75
17340,0.64,-0.33,0.7,-1.19,3.71,-0.49
17360,0.64,-0.34,0.71,0.7,2.52,0.0
17380,0.64,-0.33,0.71,0.91,2.45,-0.28
17400,0.63,-0.33,0.72,1.26,0.98,0.07
17420,0.64,-0.33,0.72,0.49,0.91,-0.35
17440,0.64,-0.33,0.72,-0.7,1.12,-0.49
17460,0.64,-0.33,0.72,-1.12,0.7,-0.63
17480,0.63,-0.34,0.72,-1.54,0.49,-0.77
17500,0.63,-0.33,0.72,-0.77,-0.91,-0.98
17520,0.64,-0.34,0.72,-0.77,-2.1,-0.91
17540,0.64,-0.33,0.72,-0.14,-1.96,-0.63
17560,0.64,-0.33,0.72,-0.28,-2.52,0.21
17580,0.64,-0.33,0.72,-0.07,-2.52,0.49
17600,0.64,-0.33,0.72,-0.35,-1.89,0.56
17620,0.64,-0.33,0.71,0.07,-2.73,0.56
17640,0.64,-0.33,0.72,0.84,-3.57,0.63
17660,0.65,-0.33,0.72,-0.98,-2.17,0.07
17680,0.64,-0.33,0.72,-0.35,-1.61,-0.56
17700,0.64,-0.33,0.71,0.07,-3.22,-0.42
17720,0.65,-0.33,0.72,0.7,-2.31,-0.56
17740,0.65,-0.33,0.71,1.33,-2.52,-0.14
17760,0.65,-0.33,0.71,1.26,-2.45,0.07
17780,0.65,-0.33,0.71,0.98,-1.89,1.12
17800,0.64,-0.33,0.71,1.61,-2.73,1.75
17820,0.65,-0.33,0.72,1.4,-1.89,1.12
17840,0.64,-0.33,0.71,0.42,-2.03,0.49
17860,0.65,-0.33,0.72,0.35,-1.96,-0.07
17880,0.65,-0.33,0.72,-0.21,-0.49,-0.42
17900,0.64,-0.33,0.71,0.28,-1.19,-0.21
17920,0.64,-0.33,0.71,-0.35,-1.61,-0.21
17940,0.65,-0.33,0.71,0.28,-2.17,0.21
17960,0.65,-0.33,0.71,0.35,-2.31,0.63
17980,0.65,-0.33,0.71,0.56,-2.52,0.77
18000,0.64,-0.33,0.71,0.63,-2.73,0.56
18020,0.64,-0.33,0.71,0.14,-2.45,0.49
18040,0.65,-0.33,0.71,0.14,-2.17,0.56
18060,0.65,-0.33,0.71,0.14,-2.59,0.21
18080,0.65,-0.33,0.71,0.28,-2.31,-0.07
18100,0.65,-0.33,0.71,0.21,-2.59,0.42
18120,0.65,-0.33,0.71,0.35,-2.38,0.63
18140,0.65,-0.33,0.72,0.7,-2.45,0.56
18160,0.66,-0.32,0.71,1.82,-0.14,1.12
18180,0.65,-0.33,0.71,0.63,-0.63,1.05
18200,0.65,-0.33,0.71,0.56,-0.49,0.49
18220,0.65,-0.33,0.71,1.05,-0.84,0.28
18240,0.65,-0.33,0.71,0.77,-0.91,0.49
18260,0.65,-0.33,0.71,1.19,-0.77,0.77
18280,0.65,-0.33,0.71,0.42,-0.49,0.77
18300,0.65,-0.33,0.71,0.77,-0.21,0.35
18320,0.65,-0.33,0.71,0.42,-0.28,0.28
18340,0.65,-0.33,0.71,0.63,-0.49,0.35
18360,0.65,-0.33,0.71,0.98,-0.35,0.42
18380,0.65,-0.33,0.71,0.63,-0.21,0.21
18400,0.65,-0.33,0.71,0.77,0.07,0.0
18420,0.65,-0.33,0.71,0.63,0.21,0.0
18440,0.65,-0.33,0.72,0.49,0.21,-0.07
18460,0.64,-0.33,0.71,0.07,-0.14,-0.21
18480,0.65,-0.33,0.71,0.14,0.07,0.07
18500,0.64,-0.33,0.71,0.63,-0.28,0.28
18520,0.64,-0.33,0.71,0.35,-0.14,0.07
18540,0.64,-0.33,0.72,0.63,-0.14,0.28
18560,0.64,-0.32,0.71,0.14,0.0,0.21
18580,0.64,-0.33,0.71,0.42,-0.56,0.35
18600,0.64,-0.33,0.72,0.42,-0.35,0.42
18620,0.64,-0.33,0.72,1.12,-0.21,0.42
18640,0.64,-0.33,0.71,1.75,-0.77,0.56
18660,0.64,-0.33,0.72,1.61,-1.05,1.05
18680,0.64,-0.33,0.71,1.33,-2.03,0.77
18700,0.64,-0.33,0.72,1.26,-2.24,0.77
18720,0.64,-0.33,0.72,1.05,-2.52,0.84
18740,0.64,-0.33,0.72,0.49,-2.38,0.63
18760,0.64,-0.33,0.72,0.42,-2.17,0.63
18780,0.64,-0.33,0.71,0.21,-2.24,0.56
18800,0.65,-0.33,0.72,0.0,-2.38,0.21
18820,0.64,-0.33,0.72,-0.07,-2.66,0.0
18840,0.64,-0.33,0.71,0.07,-2.52,0.21
18860,0.65,-0.33,0.71,-0.21,-2.31,0.28
18880,0.65,-0.33,0.71,0.28,-2.94,0.28
18900,0.65,-0.33,0.71,0.0,-2.31,0.35
18920,0.65,-0.33,0.71,0.14,-2.17,0.21
18940,0.65,-0.33,0.71,0.21,-2.17,-0.07
18960,0.65,-0.33,0.71,-0.14,-1.89,0.21
18980,0.65,-0.33,0.71,0.42,-2.24,0.56
19000,0.65,-0.33,0.71,0.49,-1.75,0.35
19020,0.65,-0.33,0.71,0.21,-2.03,0.14
19040,0.65,-0.33,0.71,0.07,-2.1,0.21
19060,0.65,-0.33,0.71,-17.78,-1.75,0.21
19080,0.65,-0.33,0.71,0.0,-1.33,0.0
19100,0.65,-0.33,0.71,-0.21,-1.61,0.07
19120,0.65,-0.33,0.71,0.28,-1.82,0.07
19140,0.65,-0.33,0.71,0.14,-1.33,0.0
19160,0.65,-0.33,0.71,0.07,-1.54,0.0
19180,0.65,-0.33,0.71,-0.21,-1.33,0.0
19200,0.65,-0.33,0.71,-0.21,-1.33,-0.14
19220,0.65,-0.33,0.71,-0.49,-0.98,0.0
19240,0.65,-0.33,0.71,-0.14,-1.47,0.21
19260,0.65,-0.33,0.71,0.21,-1.4,-0.07
19280,0.65,-0.33,0.71,0.14,-1.61,0.0
19300,0.65,-0.33,0.71,0.14,-1.61,0.35
19320,0.65,-0.33,0.71,-0.21,-1.47,0.14
19340,0.65,-0.33,0.71,0.56,-1.12,0.07
19360,0.64,-0.33,0.71,0.14,-1.33,0.28
19380,0.65,-0.33,0.71,0.07,-0.91,0.21
19400,0.65,-0.33,0.71,0.49,-0.91,0.28
19420,0.65,-0.33,0.71,-0.42,-0.98,-0.14
19440,0.65,-0.33,0.71,0.14,-1.54,0.21
19460,0.65,-0.33,0.71,0.14,-1.19,0.14
19480,0.65,-0.33,0.71,0.21,-1.26,-0.07
19500,0.65,-0.33,0.71,0.0,-1.33,0.0
19520,0.65,-0.33,0.71,0.28,-1.4,0.0
19540,0.65,-0.32,0.71,1.26,0.07,0.7
19560,0.65,-0.33,0.71,0.63,-0.56,0.49
19580,0.66,-0.32,0.7,0.07,1.4,-0.07
19600,0.64,-0.33,0.71,1.33,-1.12,0.21
19620,0.65,-0.33,0.71,0.56,-0.7,0.28
19640,0.65,-0.33,0.71,0.56,-0.21,0.21
19660,0.65,-0.33,0.71,0.77,-0.42,0.21
19680,0.65,-0.33,0.71,0.21,-0.21,0.0
19700,0.65,-0.33,0.71,0.84,0.28,0.07
19720,0.65,-0.33,0.71,0.28,0.14,-0.14
19740,0.65,-0.33,0.71,0.42,0.07,-0.07
19760,0.65,-0.33,0.71,0.77,-0.07,0.14
19780,0.65,-0.33,0.71,0.91,-0.07,0.0
19800,0.64,-0.33,0.71,0.7,-0.14,0.14
19820,0.65,-0.33,0.72,0.49,0.07,0.21
19840,0.65,-0.32,0.71,0.77,-0.21,0.14
19860,0.65,-0.32,0.72,0.63,0.28,0.14
19880,0.63,-0.33,0.71,0.35,0.63,0.35
19900,0.64,-0.33,0.71,1.4,-0.49,0.07
19920,0.64,-0.33,0.71,0.7,-0.56,0.14
19940,0.65,-0.33,0.72,0.56,-0.84,0.28
19960,0.64,-0.33,0.72,0.84,-0.28,0.28
19980,0.64,-0.32,0.72,0.35,-0.42,0.28
20000,0.64,-0.33,0.72,0.28,-0.42,0.42
20020,0.64,-0.32,0.72,0.56,-0.28,0.35
20040,0.64,-0.33,0.71,0.35,-0.63,0.35
20060,0.64,-0.32,0.72,0.91,-0.77,0.49
20080,0.64,-0.33,0.71,1.12,-0.84,0.63
20100,0.64,-0.33,0.72,1.05,-1.33,0.7
20120,0.64,-0.33,0.72,0.91,-1.68,0.56
20140,0.64,-0.33,0.72,1.19,-1.47,0.63
20160,0.64,-0.33,0.72,0.7,-1.89,0.63
20180,0.64,-0.33,0.72,0.63,-2.03,0.35
20200,0.64,-0.33,0.72,-0.14,-1.61,0.14
20220,0.64,-0.33,0.72,0.0,-1.68,-0.21
20240,0.64,-0.32,0.72,0.0,-2.24,-0.21
20260,0.64,-0.32,0.72,-0.49,-2.24,-0.14
20280,0.64,-0.33,0.72,-0.35,-1.96,-0.07
20300,0.65,-0.32,0.71,-0.42,-2.03,-0.21
20320,0.65,-0.32,0.72,-0.14,-1.75,-0.07
20340,0.65,-0.32,0.72,-0.14,-1.96,0.07
20360,0.65,-0.32,0.71,-0.35,-1.33,-0.07
20380,0.65,-0.32,0.72,-0.35,-1.75,0.0
20400,0.64,-0.32,0.71,-0.35,-1.89,-0.07
20420,0.65,-0.33,0.72,-0.07,-2.03,0.14
20440,0.64,-0.33,0.72,-0.35,-1.82,0.07
20460,0.64,-0.33,0.71,-0.07,-1.54,0.21
20480,0.64,-0.33,0.71,0.07,-1.82,0.14
20500,0.64,-0.32,0.72,0.14,-1.75,0.14
20520,0.65,-0.33,0.71,-0.21,-1.68,0.42
20540,0.64,-0.33,0.71,-0.07,-1.96,0.07
20560,0.64,-0.32,0.71,0.14,-1.82,0.14
20580,0.64,-0.33,0.71,0.35,-1.96,0.14
20600,0.65,-0.33,0.71,0.14,-1.96,0.21
20620,0.65,-0.33,0.71,-0.35,-1.96,0.07
20640,0.65,-0.33,0.71,0.07,-1.96,0.07
20660,0.64,-0.33,0.71,0.0,-1.54,0.21
20680,0.65,-0.33,0.71,0.07,-1.68,0.28
20700,0.65,-0.33,0.71,0.14,-1.96,0.21
20720,0.65,-0.33,0.71,-0.07,-1.96,0.35
20740,0.65,-0.32,0.71,0.21,-1.61,0.42
20760,0.65,-0.33,0.71,0.35,-1.82,0.49
20780,0.65,-0.33,0.71,0.14,-1.47,0.21
20800,0.65,-0.33,0.71,0.63,-1.54,0.49
20820,0.65,-0.32,0.71,0.35,-1.82,0.35
20840,0.65,-0.32,0.71,-0.91,-1.19,0.49
20860,0.65,-0.33,0.71,0.35,-1.61,0.35
20880,0.65,-0.33,0.71,0.42,-1.68,0.21
20900,0.65,-0.33,0.71,0.42,-1.89,0.56
20920,0.65,-0.33,0.71,0.42,-1.75,0.42
20940,0.65,-0.33,0.71,0.35,-1.61,0.35
20960,0.65,-0.32,0.72,1.4,-0.56,0.77
20980,0.65,-0.33,0.71,0.7,-0.49,0.42
21000,0.65,-0.33,0.71,0.42,-0.42,0.56
21020,0.65,-0.32,0.71,0.35,-0.56,0.28
21040,0.65,-0.32,0.72,0.63,-0.63,0.07
21060,0.65,-0.32,0.71,0.56,-0.42,0.14
21080,0.65,-0.33,0.71,0.28,-0.35,0.14
21100,0.65,-0.33,0.71,0.7,-0.42,0.14
21120,0.65,-0.33,0.71,0.63,-0.14,0.14
21140,0.65,-0.33,0.71,1.26,-0.28,0.21
21160,0.65,-0.32,0.71,0.42,0.35,0.35
21180,0.64,-0.33,0.71,0.21,0.07,0.14
21200,0.65,-0.33,0.71,0.56,0.21,-0.28
21220,0.65,-0.33,0.71,0.77,-0.21,0.07
21240,0.65,-0.33,0.72,0.84,-0.49,0.35
21260,0.66,-0.32,0.71,0.28,2.03,0.07
21280,0.64,-0.32,0.71,1.26,-0.77,0.28
21300,0.64,-0.33,0.72,0.35,-0.28,0.35
21320,0.65,-0.32,0.72,0.7,-0.49,0.28
21340,0.64,-0.33,0.72,0.42,-0.28,0.0
21360,0.64,-0.32,0.72,0.49,-0.77,0.21
21380,0.65,-0.32,0.72,0.7,-1.19,0.28
21400,0.64,-0.32,0.72,0.77,-0.49,0.49
21420,0.64,-0.33,0.72,0.56,-0.91,0.49
21440,0.64,-0.32,0.72,0.42,-0.7,0.56
21460,0.64,-0.32,0.71,0.77,-0.98,0.35
21480,0.64,-0.32,0.72,0.63,-0.91,0.63
21500,0.64,-0.33,0.72,0.49,-0.84,0.91
21520,0.64,-0.32,0.72,1.12,-0.98,0.77
21540,0.64,-0.33,0.72,0.98,-1.54,0.49
21560,0.64,-0.33,0.72,1.33,-1.75,0.7
21580,0.64,-0.33,0.72,1.12,-1.68,0.63
21600,0.64,-0.33,0.72,0.77,-2.03,0.28
21620,0.64,-0.33,0.72,0.07,-1.54,0.21
21640,0.64,-0.33,0.72,0.0,-2.17,0.35
21660,0.64,-0.33,0.72,-0.28,-1.96,0.14
21680,0.64,-0.32,0.72,-0.07,-1.82,-0.14
21700,0.64,-0.32,0.72,0.28,-2.24,0.07
21720,0.65,-0.32,0.72,0.07,-2.38,0.0
21740,0.65,-0.32,0.72,-0.42,-2.24,-0.14
21760,0.64,-0.32,0.71,-0.14,-1.96,0.0
21780,0.65,-0.32,0.71,-0.14,-1.75,-0.21
21800,0.65,-0.32,0.72,0.0,-1.96,0.07
21820,0.65,-0.33,0.72,-0.35,-1.68,0.0
21840,0.65,-0.32,0.72,-0.49,-0.98,-0.21
21860,0.64,-0.32,0.71,-0.35,-1.19,-0.07
21880,0.65,-0.33,0.72,-0.14,-1.89,0.14
21900,0.65,-0.32,0.71,0.07,-2.03,0.14
21920,0.64,-0.32,0.71,0.0,-2.31,0.07
21940,0.65,-0.32,0.71,0.0,-1.82,0.0
21960,0.65,-0.33,0.71,0.07,-1.82,0.28
21980,0.65,-0.32,0.72,-17.92,-1.61,0.21
22000,0.65,-0.32,0.71,-0.14,-1.82,0.0
22020,0.65,-0.32,0.72,0.07,-2.03,0.07
22040,0.65,-0.33,0.72,0.49,-2.1,0.14
22060,0.65,-0.32,0.72,0.07,-1.75,0.21
22080,0.65,-0.32,0.71,-0.07,-1.68,0.14
22100,0.65,-0.32,0.71,-0.07,-1.47,0.07
22120,0.65,-0.32,0.71,0.14,-1.68,0.28
22140,0.65,-0.33,0.71,-0.07,-1.68,0.42
22160,0.65,-0.33,0.71,0.42,-1.33,0.14
22180,0.65,-0.32,0.71,0.0,-1.61,0.07
22200,0.65,-0.33,0.71,0.21,-1.68,0.42
22220,0.65,-0.33,0.71,0.49,-1.61,0.49
22240,0.65,-0.33,0.71,-0.14,-1.4,0.07
22260,0.65,-0.32,0.71,0.0,-1.26,0.21
22280,0.65,-0.33,0.71,-0.14,-1.47,0.28
22300,0.65,-0.33,0.71,0.0,-1.47,-0.07
22320,0.65,-0.32,0.71,0.07,-1.75,0.0
22340,0.65,-0.32,0.71,0.63,-1.54,0.0
22360,0.65,-0.33,0.71,0.0,-1.33,0.35
22380,0.65,-0.33,0.71,0.0,-1.47,0.28
22400,0.65,-0.33,0.71,0.35,-1.19,0.21
22420,0.65,-0.32,0.71,1.54,0.0,0.56
22440,0.66,-0.32,0.71,0.56,-0.35,0.35
22460,0.65,-0.33,0.71,0.21,-0.07,0.49
22480,0.65,-0.32,0.71,0.63,-0.07,0.0
22500,0.65,-0.32,0.71,0.14,-0.35,0.0
22520,0.65,-0.32,0.71,0.63,-0.42,0.21
22540,0.65,-0.33,0.71,0.63,-0.42,0.28
22560,0.65,-0.32,0.71,0.91,0.21,0.28
22580,0.65,-0.32,0.71,0.63,0.0,0.14
22600,0.65,-0.33,0.71,0.77,-0.07,0.35
22620,0.65,-0.32,0.72,0.77,0.0,0.07
22640,0.64,-0.32,0.71,0.7,-0.42,0.0
22660,0.64,-0.33,0.72,0.63,-0.56,0.21
22680,0.65,-0.33,0.72,0.84,-0.35,0.28
22700,0.65,-0.32,0.72,0.56,0.0,0.0
22720,0.64,-0.33,0.72,0.49,-0.14,0.07
22740,0.64,-0.32,0.72,0.42,-0.28,0.35
22760,0.65,-0.32,0.72,0.42,-0.56,0.0
22780,0.65,-0.33,0.72,0.0,-0.21,0.21
22800,0.65,-0.32,0.72,0.7,-0.56,0.35
22820,0.64,-0.32,0.72,0.56,-0.28,0.21
22840,0.64,-0.33,0.72,0.7,-0.91,0.56
22860,0.64,-0.33,0.72,0.77,-0.7,0.63
22880,0.64,-0.32,0.72,0.63,-0.63,0.42
22900,0.64,-0.32,0.72,0.49,-0.28,0.28
22920,0.64,-0.32,0.71,0.63,-0.49,0.63
22940,0.64,-0.32,0.72,0.91,-0.84,0.63
22960,0.64,-0.33,0.71,0.91,-0.91,0.35
22980,0.64,-0.33,0.72,0.91,-1.19,0.49
23000,0.64,-0.33,0.72,1.19,-1.61,0.35
23020,0.64,-0.32,0.72,0.91,-2.03,0.56
23040,0.64,-0.32,0.72,0.35,-1.89,0.7
23060,0.64,-0.32,0.72,0.35,-1.61,0.21
23080,0.64,-0.32,0.72,0.07,-1.82,0.07
23100,0.64,-0.33,0.72,-0.42,-1.61,0.28
23120,0.64,-0.32,0.72,-0.42,-1.68,-0.07
23140,0.64,-0.32,0.71,-0.49,-1.61,-0.35
23160,0.64,-0.32,0.72,-0.14,-2.31,-0.07
23180,0.64,-0.32,0.72,-0.21,-2.31,-0.07
23200,0.65,-0.32,0.72,-0.42,-2.17,-0.21
23220,0.65,-0.32,0.71,-0.28,-2.24,-0.21
23240,0.64,-0.32,0.72,0.28,-1.82,0.21
23260,0.65,-0.32,0.72,-0.35,-1.4,0.0
23280,0.64,-0.32,0.71,-0.49,-1.75,-0.14
23300,0.65,-0.32,0.72,-0.14,-2.1,0.07
23320,0.65,-0.32,0.72,0.0,-2.03,0.07
23340,0.65,-0.32,0.72,-0.14,-1.82,0.21
23360,0.65,-0.32,0.72,0.0,-2.38,0.84
23380,0.64,-0.32,0.72,0.0,-2.59,0.7
23400,0.65,-0.32,0.72,-0.21,-2.38,0.28
23420,0.65,-0.33,0.71,-1.05,-1.68,0.28
23440,0.64,-0.33,0.71,-0.49,-1.96,17.85
23460,0.64,-0.32,0.71,-0.56,-1.89,-0.28
23480,0.65,-0.33,0.71,-0.49,-2.52,-0.07
23500,0.65,-0.33,0.71,0.0,-2.31,0.28
23520,0.65,-0.33,0.71,0.14,-2.1,0.56
23540,0.68,-0.33,0.71,1.61,1.68,0.42
23560,0.64,-0.32,0.71,0.42,-2.73,0.7
23580,0.65,-0.32,0.71,-0.35,-1.68,0.28
23600,0.65,-0.33,0.71,0.28,-1.68,0.35
23620,0.65,-0.33,0.71,0.56,-2.03,0.28
23640,0.65,-0.32,0.71,0.07,-2.1,0.21
23660,0.65,-0.33,0.71,0.14,-1.61,-0.42
23680,0.66,-0.31,0.72,1.4,0.14,-0.42
23700,0.64,-0.33,0.72,6.02,-3.43,-2.87
23720,0.67,-0.34,0.7,0.63,-2.31,-6.02
23740,0.66,-0.32,0.71,-4.62,3.99,-6.02
23760,0.64,-0.34,0.71,0.7,-1.89,-3.57
23780,0.66,-0.32,0.71,0.14,-1.75,-3.5
23800,0.65,-0.32,0.7,1.82,-1.54,-1.89
23820,0.65,-0.32,0.72,3.85,-3.57,1.61
23840,0.66,-0.3,0.72,4.97,-0.42,2.24
23860,0.65,-0.3,0.71,3.71,-1.61,1.96
23880,0.65,-0.3,0.72,2.03,-0.56,1.33
23900,0.66,-0.3,0.72,0.21,-0.91,0.49
23920,0.66,-0.31,0.71,-1.05,0.14,-0.56
23940,0.66,-0.31,0.71,-0.91,1.12,-0.35
23960,0.66,-0.31,0.71,-0.98,1.61,-0.07
23980,0.65,-0.32,0.71,-0.35,1.33,0.07
24000,0.65,-0.32,0.71,0.14,0.77,0.7
24020,0.65,-0.32,0.71,1.19,0.49,1.26
24040,0.65,-0.32,0.72,1.54,-0.35,1.26
24060,0.65,-0.32,0.72,1.26,-0.14,1.12
24080,0.65,-0.32,0.72,1.61,-0.35,0.84
24100,0.64,-0.31,0.72,1.12,0.07,0.49
24120,0.64,-0.31,0.72,0.63,-0.28,0.42
24140,0.65,-0.32,0.72,0.77,0.0,0.28
24160,0.65,-0.32,0.72,0.07,-0.28,0.07
24180,0.64,-0.31,0.72,-0.35,-0.21,0.07
24200,0.65,-0.31,0.72,-0.21,-0.91,0.07
24220,0.65,-0.32,0.72,0.07,-0.63,0.14
24240,0.64,-0.31,0.72,0.77,-1.4,0.63
24260,0.65,-0.31,0.72,1.33,-1.68,1.26
24280,0.65,-0.31,0.72,1.61,-1.47,1.19
24300,0.65,-0.31,0.72,0.91,-1.33,1.12
24320,0.64,-0.32,0.72,0.91,-2.03,1.54
24340,0.65,-0.32,0.72,0.14,-2.45,1.54
24360,0.65,-0.31,0.72,-0.84,-2.8,1.68
24380,0.64,-0.32,0.72,-0.49,-3.22,1.33
24400,0.65,-0.32,0.71,0.0,-3.22,0.63
24420,0.65,-0.32,0.71,-0.35,-3.08,0.63
24440,0.65,-0.32,0.72,-1.54,-2.94,0.84
24460,0.65,-0.32,0.71,-2.1,-3.15,0.49
24480,0.65,-0.32,0.71,-3.15,-3.22,-0.49
24500,0.65,-0.32,0.71,-2.03,-3.22,-0.28
24520,0.65,-0.32,0.71,-1.89,-2.87,-0.35
24540,0.65,-0.33,0.71,-0.91,-2.94,-0.49
24560,0.65,-0.32,0.71,-1.33,-2.45,-0.35
24580,0.65,-0.32,0.71,-0.42,-2.59,0.07
24600,0.65,-0.32,0.71,-0.35,-2.59,0.28
24620,0.65,-0.32,0.71,-0.07,-2.52,0.84
24640,0.65,-0.32,0.71,0.49,-2.52,0.98
24660,0.66,-0.32,0.71,0.35,-2.38,0.35
24680,0.65,-0.32,0.71,0.49,-1.89,0.56
24700,0.65,-0.32,0.71,0.7,-2.66,1.26
24720,0.65,-0.32,0.71,0.14,-1.75,0.7
24740,0.65,-0.32,0.71,0.84,-2.59,0.7
24760,0.65,-0.32,0.71,0.56,-2.03,0.77
24780,0.66,-0.32,0.71,0.56,-1.82,0.7
24800,0.66,-0.32,0.71,0.63,-1.61,0.35
24820,0.65,-0.33,0.7,0.56,-1.75,0.56
24840,0.66,-0.32,0.71,-0.35,-1.75,1.33
24860,0.65,-0.32,0.71,0.7,-2.1,1.19
24880,0.65,-0.33,0.71,0.7,-3.36,1.47
24900,0.66,-0.32,0.71,0.42,-1.96,1.05
24920,0.66,-0.32,0.71,0.42,-2.1,0.98
24940,0.65,-0.32,0.7,1.19,-2.31,0.98
24960,0.66,-0.32,0.71,0.49,-2.17,0.63
24980,0.67,-0.31,0.71,-0.21,0.84,-0.42
25000,0.65,-0.33,0.7,0.49,-1.12,0.14
25020,0.65,-0.33,0.69,0.84,-2.03,-0.21
25040,0.64,-0.35,0.71,4.69,-8.26,4.2
25060,0.66,-0.32,0.74,3.15,-8.19,7.7
25080,0.69,-0.28,0.73,-5.81,2.03,5.11
25100,0.65,-0.32,0.69,-4.41,-1.47,3.78
25120,0.64,-0.34,0.7,-4.13,-5.04,2.03
25140,0.66,-0.33,0.7,-3.78,-0.07,-1.54
25160,0.66,-0.33,0.7,-3.08,-1.96,-1.54
25180,0.67,-0.33,0.7,-2.52,0.77,-2.52
25200,0.67,-0.33,0.69,-3.71,3.36,-4.13
25220,0.66,-0.34,0.69,-2.73,3.5,-4.27
25240,0.66,-0.35,0.69,-1.47,3.43,-4.2
25260,0.67,-0.34,0.7,-1.96,4.62,-3.64
25280,0.66,-0.34,0.7,-0.77,4.41,-2.24
25300,0.65,-0.34,0.7,0.63,2.87,-1.4
25320,0.66,-0.33,0.71,0.49,3.08,-0.7
25340,0.65,-0.33,0.71,1.26,2.17,-0.35
25360,0.65,-0.33,0.71,0.63,2.45,0.42
25380,0.64,-0.32,0.72,-0.84,2.03,1.33
25400,0.65,-0.32,0.72,-1.12,1.61,0.84
25420,0.65,-0.32,0.72,-2.59,1.33,-0.63
25440,0.64,-0.33,0.72,-2.52,1.19,-1.68
25460,0.64,-0.33,0.72,-1.75,0.91,-1.82
25480,0.65,-0.33,0.71,-2.45,1.19,-2.31
25500,0.65,-0.34,0.71,-2.66,1.61,-2.66
25520,0.65,-0.33,0.71,-2.1,1.89,-1.68
25540,0.65,-0.34,0.71,-0.98,1.26,-1.12
25560,0.64,-0.34,0.71,0.07,0.49,-0.49
25580,0.64,-0.33,0.71,0.77,-0.21,0.28
25600,0.64,-0.33,0.71,1.26,-1.75,0.91
25620,0.65,-0.33,0.72,0.56,-0.98,1.05
25640,0.64,-0.33,0.72,0.56,-1.75,1.61
25660,0.64,-0.33,0.72,0.98,-1.47,0.98
25680,0.64,-0.33,0.72,0.0,-0.98,0.35
25700,0.64,-0.33,0.72,-0.21,-1.54,0.63
25720,0.64,-0.34,0.72,-1.05,-1.61,0.56
25740,0.64,-0.34,0.71,-0.56,-1.96,0.28
25760,0.64,-0.34,0.71,-0.21,-2.52,0.63
25780,0.64,-0.33,0.72,0.28,-3.08,0.7
25800,0.64,-0.33,0.71,-0.07,-3.64,0.7
25820,0.65,-0.33,0.71,0.28,-3.64,0.91
25840,0.65,-0.33,0.72,0.42,-2.8,0.84
25860,0.65,-0.33,0.71,-0.28,-2.66,0.56
25880,0.65,-0.33,0.71,-0.49,-1.96,0.63
25900,0.65,-0.33,0.71,-0.07,-2.38,0.21
25920,0.65,-0.33,0.71,-0.56,-2.17,0.21
25940,0.65,-0.34,0.71,0.21,-1.96,0.42
25960,0.65,-0.34,0.71,-0.07,-1.89,0.35
25980,0.65,-0.33,0.71,-0.14,-1.82,0.35
26000,0.65,-0.34,0.71,-0.35,-1.75,0.49
26020,0.65,-0.33,0.71,-0.07,-1.68,0.35
26040,0.65,-0.34,0.71,-0.35,-1.68,0.35
26060,0.65,-0.33,0.71,-0.91,-0.56,-0.21
26080,0.65,-0.33,0.71,-0.77,-0.84,0.91
26100,0.65,-0.33,0.71,-0.49,-1.19,0.21
26120,0.65,-0.34,0.71,-0.35,-1.19,-0.63
26140,0.65,-0.33,0.71,0.21,-1.61,-0.07
26160,0.65,-0.34,0.7,0.49,-2.03,0.14
26180,0.65,-0.34,0.71,0.0,-1.54,0.28
26200,0.65,-0.34,0.71,0.42,-1.82,0.0
26220,0.65,-0.34,0.71,-0.21,-1.54,0.42
26240,0.65,-0.34,0.71,0.14,-1.47,0.49
26260,0.65,-0.34,0.71,0.42,-1.82,0.28
26280,0.65,-0.33,0.71,0.56,-1.4,0.28
26300,0.65,-0.34,0.71,0.56,-2.03,0.56
26320,0.65,-0.34,0.71,-0.07,-1.75,0.35
26340,0.65,-0.33,0.71,-0.07,-1.61,0.07
26360,0.65,-0.34,0.71,-0.42,-0.98,0.0
26380,0.65,-0.34,0.7,0.42,-1.89,0.21
26400,0.65,-0.34,0.71,0.07,-1.26,0.28
26420,0.65,-0.33,0.7,0.7,-0.77,0.49
26440,0.66,-0.34,0.71,0.21,-0.77,0.35
26460,0.65,-0.34,0.7,0.21,0.07,0.21
26480,0.65,-0.34,0.71,0.49,-0.49,0.07
26500,0.65,-0.34,0.71,0.63,0.07,-0.07
26520,0.65,-0.33,0.71,0.14,0.07,-0.07
26540,0.65,-0.34,0.71,0.0,0.28,0.14
26560,0.64,-0.34,0.71,0.42,-0.07,0.0
26580,0.65,-0.34,0.71,0.42,0.84,-0.14
26600,0.65,-0.33,0.7,0.42,0.21,0.0
26620,0.65,-0.34,0.71,0.28,0.28,-0.07
26640,0.65,-0.34,0.71,0.0,0.91,-0.35
26660,0.65,-0.34,0.71,0.49,1.05,-1.12
26680,0.65,-0.33,0.71,0.35,2.17,-1.54
26700,0.65,-0.34,0.71,0.84,1.54,-1.96
26720,0.65,-0.34,0.71,0.42,1.61,-1.89
26740,0.64,-0.33,0.71,1.54,0.7,-0.63
26760,0.64,-0.33,0.72,1.96,-0.14,-0.21
26780,0.64,-0.34,0.71,2.03,-0.35,-0.07
26800,0.64,-0.33,0.71,2.03,0.21,0.35
26820,0.64,-0.33,0.72,2.03,-0.84,0.77
26840,0.64,-0.33,0.72,1.68,-0.35,0.77
26860,0.64,-0.33,0.72,0.56,-0.14,0.42
26880,0.64,-0.33,0.71,0.56,-0.35,0.28
26900,0.64,-0.33,0.71,0.84,-1.12,0.49
26920,0.64,-0.33,0.72,0.98,-1.19,1.05
26940,0.64,-0.33,0.71,1.61,-1.19,1.05
26960,0.64,-0.33,0.72,1.4,-1.96,1.12
26980,0.64,-0.33,0.71,1.4,-2.31,1.19
27000,0.64,-0.34,0.72,0.84,-3.36,0.91
27020,0.64,-0.33,0.72,0.7,-3.29,0.56
27040,0.64,-0.33,0.72,0.28,-3.57,0.84
27060,0.64,-0.33,0.71,0.07,-3.78,0.49
27080,0.64,-0.34,0.71,0.14,-3.85,0.35
27100,0.65,-0.33,0.71,0.0,-3.43,0.0
27120,0.65,-0.33,0.71,-0.98,-3.29,-0.07
27140,0.65,-0.33,0.71,-0.84,-3.5,-0.14
27160,0.65,-0.33,0.71,-0.63,-2.8,0.07
27180,0.65,-0.33,0.71,-0.35,-2.24,-0.42
27200,0.64,-0.31,0.76,3.36,0.0,-0.98
27220,0.68,-0.28,0.74,1.12,8.05,-10.43
27240,0.64,-0.42,0.69,-6.65,-1.89,-24.01
27260,0.75,-0.41,0.66,-8.68,9.03,-31.5
27280,0.75,-0.29,0.7,-7.0,27.09,-18.27
27300,0.62,-0.28,0.7,-3.85,24.5,-2.03
27320,0.5,-0.31,0.71,2.17,0.63,8.54
27340,0.59,-0.28,0.75,1.19,-8.4,7.84
27360,0.66,-0.28,0.73,3.43,-8.47,2.94
27380,0.67,-0.31,0.73,4.97,-5.6,0.77
27400,0.65,-0.31,0.73,5.95,-2.45,0.98
27420,0.63,-0.3,0.73,4.13,-0.28,0.07
27440,0.63,-0.3,0.73,0.7,0.63,-1.33
27460,0.64,-0.32,0.73,-1.33,1.89,-1.68
27480,0.64,-0.32,0.73,-1.33,2.73,-1.05
27500,0.65,-0.31,0.72,-1.12,4.97,-2.66
27520,0.65,-0.34,0.71,-1.61,3.92,-4.06
27540,0.63,-0.34,0.71,0.42,1.19,-0.56
27560,0.61,-0.33,0.71,2.52,-4.06,3.99
27580,0.62,-0.32,0.73,4.62,-5.67,6.37
27600,0.64,-0.3,0.74,4.69,-4.55,5.81
27620,0.64,-0.3,0.74,3.08,-3.36,3.92
27640,0.64,-0.3,0.73,0.91,-1.89,2.03
27660,0.63,-0.31,0.73,-0.63,-1.75,0.35
27680,0.64,-0.32,0.73,-1.54,-1.68,-0.77
27700,0.64,-0.32,0.72,-1.33,-1.54,-1.54
27720,0.64,-0.32,0.73,-1.19,-2.17,-1.19
27740,0.64,-0.32,0.72,-0.56,-2.73,-0.63
27760,0.64,-0.32,0.72,-0.56,-2.94,0.42
27780,0.64,-0.33,0.72,0.07,-2.24,0.98
27800,0.64,-0.32,0.72,0.42,-3.15,1.12
27820,0.65,-0.31,0.73,0.49,-2.31,0.84
27840,0.64,-0.31,0.72,1.19,-2.31,0.84
27860,0.64,-0.31,0.73,0.21,-1.54,0.35
27880,0.65,-0.31,0.73,1.75,0.63,0.63
27900,0.64,-0.31,0.72,0.0,0.07,-0.21
27920,0.63,-0.31,0.72,0.07,0.63,-0.21
27940,0.64,-0.32,0.72,0.35,-0.35,-0.07
27960,0.64,-0.31,0.73,0.56,0.14,0.21
27980,0.64,-0.31,0.72,0.91,-0.63,0.42
28000,0.64,-0.32,0.72,1.54,-0.84,0.42
28020,0.64,-0.32,0.72,1.33,-0.28,0.77
28040,0.64,-0.31,0.72,1.33,-0.84,0.7
28060,0.64,-0.31,0.73,1.26,0.0,0.49
28080,0.63,-0.32,0.73,0.98,0.0,0.35
28100,0.63,-0.32,0.72,0.98,-0.28,0.28
28120,0.64,-0.31,0.73,1.12,-0.77,0.21
28140,0.64,-0.31,0.73,1.26,-1.05,0.21
28160,0.63,-0.31,0.72,1.12,-0.35,0.07
28180,0.63,-0.31,0.72,1.89,-1.33,0.21
28200,0.64,-0.31,0.73,1.61,-1.4,0.77
28220,0.63,-0.31,0.73,1.82,-0.84,0.91
28240,0.63,-0.31,0.72,1.68,-1.75,0.21
28260,0.64,-0.32,0.73,0.91,-2.31,-0.21
28280,0.64,-0.31,0.73,0.42,-2.8,-0.14
28300,0.64,-0.32,0.73,-0.28,-2.38,-0.21
28320,0.64,-0.31,0.72,-0.14,-2.52,-0.14
28340,0.64,-0.31,0.72,-0.35,-3.29,0.14
28360,0.64,-0.31,0.73,-0.49,-2.45,0.21
28380,0.64,-0.31,0.73,-0.56,-1.47,0.21
28400,0.64,-0.31,0.72,0.21,-2.31,-0.07
28420,0.64,-0.31,0.73,-0.35,-2.1,-0.21
28440,0.65,-0.31,0.73,0.63,0.21,0.35
28460,0.64,-0.31,0.73,0.42,-0.42,0.35
28480,0.64,-0.31,0.72,0.28,0.14,0.49
28500,0.64,-0.31,0.73,1.4,-0.49,0.98
28520,0.64,-0.31,0.73,1.05,-0.28,0.77
28540,0.64,-0.31,0.73,1.05,-0.28,0.49
28560,0.64,-0.3,0.73,0.35,-0.14,0.49
28580,0.64,-0.31,0.73,0.42,0.7,0.28
28600,0.64,-0.31,0.73,1.05,0.7,-0.21
28620,0.64,-0.31,0.73,0.63,1.19,-0.63
28640,0.64,-0.31,0.73,0.42,0.91,-0.98
28660,0.64,-0.31,0.73,-0.28,1.47,-0.49
28680,0.63,-0.32,0.73,-0.07,0.98,-0.07
28700,0.63,-0.31,0.73,0.49,0.98,-0.28
28720,0.63,-0.31,0.73,0.42,0.56,-0.21
28740,0.63,-0.31,0.73,0.14,0.42,-0.14
28760,0.63,-0.31,0.73,0.7,-0.21,0.14
28780,0.63,-0.31,0.73,1.4,-0.42,0.21
28800,0.63,-0.31,0.73,0.91,-0.07,0.14
28820,0.63,-0.32,0.73,1.26,-0.91,-0.07
28840,0.63,-0.32,0.73,0.98,-2.03,0.07
28860,0.63,-0.31,0.73,0.56,-3.22,0.14
28880,0.63,-0.31,0.74,0.14,-3.43,0.28
28900,0.63,-0.31,0.73,0.14,-3.29,0.49
28920,0.64,-0.31,0.73,0.0,-3.43,0.63
28940,0.64,-0.31,0.73,-0.21,-2.87,0.56
28960,0.64,-0.31,0.73,-0.63,-3.5,0.21
28980,0.64,-0.31,0.73,-1.19,-3.71,-0.28
29000,0.64,-0.31,0.73,-0.49,-3.43,-0.35
29020,0.64,-0.3,0.73,-0.63,-2.87,-0.28
29040,0.64,-0.31,0.73,-0.21,-2.94,0.14
29060,0.64,-0.31,0.73,-0.35,-2.87,0.0
29080,0.64,-0.31,0.73,-0.21,-1.89,-0.07
29100,0.64,-0.31,0.74,0.0,-0.84,0.21
29120,0.65,-0.3,0.73,0.7,-0.42,0.98
29140,0.64,-0.31,0.72,0.0,-0.49,0.35
29160,0.64,-0.31,0.72,0.07,-0.56,0.21
29180,0.64,-0.31,0.73,1.12,-0.28,0.35
29200,0.64,-0.31,0.73,1.12,-0.07,0.21
29220,0.64,-0.31,0.73,0.98,-0.07,0.14
29240,0.64,-0.3,0.73,0.63,-0.77,0.0
29260,0.64,-0.31,0.73,1.05,-0.28,0.35
29280,0.64,-0.31,0.73,0.42,0.28,0.35
29300,0.64,-0.31,0.73,0.63,0.49,0.28
29320,0.63,-0.3,0.73,0.49,0.0,0.28
29340,0.64,-0.31,0.73,0.56,-0.56,0.35
29360,0.64,-0.31,0.73,0.98,-0.28,0.21
29380,0.63,-0.31,0.73,0.91,-0.35,0.14
29400,0.63,-0.31,0.73,1.05,-0.07,0.42
29420,0.63,-0.31,0.73,0.91,-0.42,0.35
29440,0.63,-0.31,0.73,0.63,-0.84,0.14
29460,0.63,-0.31,0.73,0.42,-1.68,0.07
29480,0.63,-0.31,0.74,0.35,-2.17,0.21
29500,0.64,-0.31,0.73,-0.28,-2.1,0.21
29520,0.63,-0.31,0.73,-0.21,-1.89,0.14
29540,0.63,-0.31,0.73,-0.07,-2.66,-0.21
29560,0.63,-0.32,0.72,-0.91,-4.55,1.19
29580,0.63,-0.31,0.73,-0.56,-5.11,4.69
29600,0.62,-0.31,0.74,0.14,-8.82,5.46
29620,0.63,-0.31,0.73,-0.21,-10.01,5.67
29640,0.64,-0.32,0.73,0.63,-10.78,7.98
29660,0.65,-0.3,0.73,-0.7,-7.42,7.35
29680,0.65,-0.3,0.72,-0.42,-6.65,5.18
29700,0.64,-0.31,0.72,-0.14,-6.09,5.39
29720,0.65,-0.31,0.72,-1.75,-6.58,4.55
29740,0.65,-0.32,0.72,-3.15,-6.23,3.85
29760,0.65,-0.32,0.72,-4.69,-4.69,3.08
29780,0.66,-0.31,0.72,-3.92,0.07,1.12
29800,0.65,-0.32,0.7,-2.24,-0.49,-0.56
29820,0.65,-0.34,0.7,-0.77,-0.7,-2.03
29840,0.65,-0.34,0.7,0.21,1.33,-4.48
29860,0.65,-0.34,0.7,0.0,0.0,-3.92
29880,0.65,-0.33,0.71,0.0,0.49,-2.94
29900,0.66,-0.34,0.71,-1.19,0.91,-2.52
29920,0.65,-0.32,0.71,-0.77,2.03,-2.31
29940,0.65,-0.33,0.71,-0.63,2.31,-1.82
29960,0.65,-0.32,0.71,-0.77,2.31,-1.26
29980,0.65,-0.32,0.72,-0.21,2.45,-1.33
30000,0.65,-0.32,0.72,-0.77,2.45,-1.26
30020,0.64,-0.32,0.72,-0.35,1.54,-1.26
30040,0.64,-0.32,0.72,0.14,1.4,-0.84
30060,0.64,-0.32,0.72,-0.14,1.33,-0.91
30080,0.64,-0.33,0.72,0.14,0.98,-0.63
30100,0.64,-0.32,0.72,0.63,0.35,0.35
30120,0.64,-0.32,0.72,1.4,-0.14,0.98
30140,0.64,-0.32,0.72,1.47,-1.47,1.33
30160,0.63,-0.33,0.72,1.4,-1.47,1.54
30180,0.63,-0.33,0.72,0.98,-1.61,1.12
30200,0.64,-0.32,0.72,0.7,-2.52,0.77
30220,0.64,-0.33,0.72,-0.49,-2.8,0.49
30240,0.63,-0.32,0.72,-1.12,-3.78,-0.21
30260,0.64,-0.33,0.72,-0.77,-4.41,-0.21
30280,0.65,-0.33,0.71,-1.19,-3.29,0.28
30300,0.65,-0.32,0.72,-0.42,-2.73,0.63
30320,0.64,-0.32,0.72,-0.35,-2.52,0.77
30340,0.64,-0.33,0.71,0.35,-3.01,0.49
30360,0.64,-0.33,0.72,-0.49,-2.59,0.21
30380,0.65,-0.32,0.72,0.91,-0.35,0.98
30400,0.65,-0.32,0.72,-0.56,-0.98,0.7
30420,0.64,-0.32,0.71,-0.14,-0.56,0.49
30440,0.65,-0.32,0.71,1.12,-0.35,0.21
30460,0.65,-0.32,0.72,0.35,0.07,-0.35
30480,0.65,-0.32,0.72,0.28,-0.42,0.14
30500,0.65,-0.32,0.71,0.35,0.14,0.35
30520,0.65,-0.32,0.71,0.84,0.28,0.0
30540,0.64,-0.32,0.71,1.05,0.0,-0.14
30560,0.65,-0.32,0.72,0.7,0.07,0.14
30580,0.64,-0.32,0.72,0.56,0.49,0.21
30600,0.64,-0.32,0.72,0.28,0.49,-0.07
30620,0.64,-0.33,0.72,-0.07,0.28,0.21
30640,0.64,-0.32,0.72,-0.77,0.14,-0.21
30660,0.64,-0.32,0.72,-0.35,0.14,-0.42
30680,0.64,-0.32,0.72,0.63,-0.63,-0.07
30700,0.64,-0.32,0.72,0.91,-0.28,0.56
30720,0.64,-0.33,0.71,0.91,-0.42,0.84
30740,0.63,-0.33,0.72,0.98,-0.91,0.98
30760,0.63,-0.33,0.72,1.12,-1.75,1.54
30780,0.64,-0.33,0.72,-0.35,-3.57,0.56
30800,0.64,-0.33,0.72,-1.19,-3.01,-0.21
30820,0.63,-0.33,0.72,-1.12,-4.06,0.0
30840,0.63,-0.33,0.72,-0.77,-4.27,0.07
30860,0.64,-0.32,0.72,-1.19,-3.85,-0.35
30880,0.65,-0.32,0.72,-0.84,-3.43,-0.35
30900,0.64,-0.33,0.72,-1.05,-3.22,0.0
30920,0.65,-0.33,0.72,-0.56,-2.59,0.21
30940,0.65,-0.32,0.72,1.4,0.0,0.7
30960,0.65,-0.32,0.72,-0.98,-0.91,0.0
30980,0.64,-0.32,0.71,-0.35,-0.56,0.56
31000,0.65,-0.32,0.72,0.63,0.0,-0.14
31020,0.65,-0.32,0.72,0.49,-0.07,0.14
31040,0.65,-0.32,0.72,1.05,-0.14,0.42
31060,0.64,-0.32,0.72,1.19,-0.21,0.49
31080,0.65,-0.32,0.71,0.35,-0.14,0.28
31100,0.65,-0.33,0.71,-17.85,0.56,1.33
31120,0.64,-0.33,0.72,-0.14,0.28,1.75
31140,0.64,-0.33,0.72,-1.19,0.98,1.96
31160,0.63,-0.32,0.72,-1.4,-0.28,2.38
31180,0.63,-0.33,0.72,-0.35,-2.31,4.06
31200,0.65,-0.33,0.72,-1.19,-0.21,3.5
31220,0.64,-0.33,0.72,-0.77,-0.42,1.61
31240,0.63,-0.33,0.71,0.07,-0.91,0.49
31260,0.63,-0.34,0.71,-0.7,-2.31,-0.63
31280,0.64,-0.34,0.71,-1.61,-3.15,-1.26
31300,0.64,-0.34,0.71,-2.52,-3.78,-0.91
31320,0.64,-0.33,0.71,-2.24,-3.71,-0.28
31340,0.64,-0.34,0.71,-0.7,-3.78,0.84
31360,0.64,-0.34,0.72,0.0,-4.34,1.4
31380,0.65,-0.33,0.72,0.21,-3.08,0.63
31400,0.64,-0.33,0.72,0.14,-2.73,0.28
31420,0.64,-0.33,0.71,0.35,-2.03,0.56
31440,0.65,-0.33,0.72,-0.84,-1.89,-0.35
31460,0.65,-0.33,0.72,-1.26,-0.21,-1.68
31480,0.64,-0.33,0.71,0.21,-1.12,-2.8
31500,0.65,-0.34,0.71,0.98,-0.63,-1.54
31520,0.64,-0.34,0.72,1.54,-1.4,-1.05
31540,0.66,-0.32,0.71,3.15,2.1,0.84
31560,0.64,-0.32,0.71,1.54,0.84,1.75
31580,0.64,-0.33,0.71,1.96,0.7,1.96
31600,0.64,-0.33,0.71,2.03,0.35,1.12
31620,0.64,-0.32,0.72,1.33,-0.7,-0.07
31640,0.64,-0.33,0.72,1.54,-0.42,-0.21
31660,0.64,-0.33,0.72,0.56,-0.14,-0.42
31680,0.64,-0.33,0.72,0.07,0.28,-0.21
31700,0.64,-0.33,0.71,0.35,0.35,-0.28
31720,0.64,-0.34,0.71,0.84,0.14,0.0
31740,0.64,-0.33,0.71,0.77,0.07,0.63
31760,0.65,-0.33,0.72,0.63,0.14,0.35
31780,0.63,-0.33,0.71,1.12,-0.7,0.42
31800,0.64,-0.33,0.72,1.19,-0.84,0.07
31820,0.64,-0.33,0.72,1.61,-0.77,0.35
31840,0.64,-0.34,0.71,1.54,-1.19,0.56
31860,0.64,-0.33,0.71,1.96,-1.05,0.28
31880,0.63,-0.33,0.72,4.55,-2.03,1.82
31900,0.63,-0.33,0.73,3.57,-4.41,3.01
31920,0.63,-0.33,0.72,1.82,-7.14,2.45
31940,0.63,-0.33,0.72,1.12,-7.7,0.91
31960,0.64,-0.33,0.71,0.84,-7.07,-0.49
31980,0.64,-0.34,0.71,0.28,-7.21,-2.17
32000,0.65,-0.33,0.73,-0.63,-3.5,-3.36
32020,0.66,-0.32,0.71,-0.56,-2.1,-2.17
32040,0.66,-0.32,0.71,-2.17,0.0,-1.82
32060,0.65,-0.34,0.7,-1.47,0.14,-3.08
32080,0.66,-0.33,0.7,-1.47,2.1,-3.78
32100,0.66,-0.32,0.7,0.07,1.96,-1.33
32120,0.65,-0.32,0.72,1.05,-0.07,1.26
32140,0.65,-0.31,0.72,2.1,0.07,1.75
32160,0.65,-0.31,0.72,2.45,-0.21,0.42
32180,0.65,-0.31,0.72,1.89,0.42,0.21
32200,0.65,-0.31,0.72,2.8,0.35,-0.84
32220,0.65,-0.31,0.72,1.4,0.84,-1.12
32240,0.64,-0.31,0.71,1.47,1.47,-1.47
32260,0.64,-0.32,0.72,1.05,1.26,-0.63
32280,0.64,-0.32,0.71,1.47,1.4,0.0
32300,0.64,-0.33,0.71,1.61,1.33,0.28
32320,0.64,-0.33,0.72,1.05,0.84,-0.07
32340,0.64,-0.32,0.71,0.7,-1.33,0.28
32360,0.64,-0.33,0.72,-0.63,-2.45,1.26
32380,0.65,-0.32,0.72,-1.54,-2.03,1.47
32400,0.64,-0.31,0.72,-1.47,-0.91,1.19
32420,0.63,-0.32,0.72,-1.26,-2.38,0.28
32440,0.65,-0.33,0.72,-1.75,-2.59,-0.77
32460,0.64,-0.32,0.72,-1.12,-1.96,-0.63
32480,0.64,-0.32,0.71,-0.91,-2.52,-0.42
32500,0.64,-0.33,0.72,-0.77,-2.59,-0.42
32520,0.65,-0.32,0.71,-0.63,-2.73,0.0
32540,0.65,-0.32,0.72,-0.42,-2.38,0.21
32560,0.65,-0.32,0.71,0.07,-2.31,0.35
32580,0.65,-0.32,0.72,-0.07,-2.38,0.21
32600,0.65,-0.32,0.71,0.28,-1.89,0.56
32620,0.65,-0.32,0.72,0.14,-2.1,0.28
32640,0.65,-0.32,0.71,0.14,-1.68,0.0
32660,0.65,-0.32,0.72,-0.42,-1.33,0.35
32680,0.65,-0.32,0.71,0.0,-1.26,0.21
32700,0.64,-0.32,0.71,-0.14,-1.61,0.0
32720,0.65,-0.32,0.71,0.0,-1.61,0.14
32740,0.65,-0.33,0.72,-0.14,-1.75,0.21
32760,0.66,-0.32,0.72,0.42,0.98,0.21
32780,0.65,-0.32,0.71,0.07,0.7,0.28
32800,0.64,-0.33,0.71,0.28,0.56,0.07
32820,0.65,-0.32,0.71,0.77,0.84,-0.56
32840,0.64,-0.32,0.71,0.0,-0.49,-0.63
32860,0.65,-0.32,0.72,0.42,0.14,-0.14
32880,0.65,-0.32,0.71,0.49,-0.28,0.07
32900,0.65,-0.32,0.71,0.21,0.35,-0.21
32920,0.64,-0.32,0.72,0.91,0.21,0.14
32940,0.64,-0.32,0.72,0.21,0.21,-0.14
32960,0.65,-0.32,0.72,0.63,0.35,0.0
32980,0.64,-0.33,0.72,0.0,0.56,0.0
33000,0.64,-0.32,0.71,0.56,0.35,0.07
33020,0.64,-0.32,0.72,0.63,-0.14,0.07
33040,0.64,-0.32,0.72,0.42,-0.14,0.21
33060,0.64,-0.32,0.72,0.63,-0.49,0.28
33080,0.64,-0.32,0.72,0.7,-0.14,0.28
33100,0.64,-0.32,0.72,1.12,-0.7,0.77
33120,0.64,-0.32,0.72,0.91,-1.05,1.05
33140,0.64,-0.33,0.72,1.75,-1.89,0.84
33160,0.64,-0.32,0.72,0.98,-2.24,0.56
33180,0.64,-0.32,0.72,0.49,-2.8,0.63
33200,0.64,-0.32,0.72,-0.21,-3.5,0.63
33220,0.64,-0.32,0.72,0.0,-3.15,0.28
33240,0.64,-0.32,0.72,0.14,-3.15,0.28
33260,0.65,-0.32,0.72,-0.07,-3.29,0.63
33280,0.65,-0.32,0.72,-0.63,-2.66,0.56
33300,0.64,-0.32,0.72,-0.35,-2.66,0.07
33320,0.64,-0.32,0.71,0.21,-2.66,0.0
33340,0.65,-0.32,0.72,-0.07,-2.52,-0.21
33360,0.65,-0.32,0.71,0.56,-2.31,-0.14
33380,0.65,-0.32,0.71,0.07,-2.17,-0.42
33400,0.65,-0.32,0.71,0.0,-1.4,-0.35
33420,0.65,-0.32,0.72,0.21,-1.47,-0.35
33440,0.65,-0.32,0.72,0.42,-0.42,-1.26
33460,0.65,-0.31,0.71,0.14,0.7,-2.38
33480,0.65,-0.32,0.71,0.21,-0.07,-4.13
33500,0.65,-0.33,0.71,-0.28,1.82,-4.2
33520,0.65,-0.32,0.71,0.84,1.12,-3.5
33540,0.64,-0.32,0.72,3.71,0.35,-3.57
33560,0.64,-0.32,0.71,4.2,0.21,-4.13
33580,0.65,-0.32,0.72,4.13,0.42,-3.92
33600,0.65,-0.31,0.72,3.08,1.4,-3.22
33620,0.64,-0.31,0.72,2.45,1.68,-3.43
33640,0.64,-0.31,0.72,0.56,2.52,-3.43
33660,0.64,-0.31,0.72,-1.4,1.47,-2.24
33680,0.65,-0.31,0.73,-2.31,1.19,-1.61
33700,0.64,-0.31,0.73,-1.33,2.66,-1.05
33720,0.63,-0.31,0.73,-1.96,0.84,-0.28
33740,0.64,-0.31,0.73,-3.08,1.89,0.07
33760,0.63,-0.3,0.73,-2.59,2.59,1.61
33780,0.64,-0.29,0.73,-0.42,3.64,2.52
33800,0.64,-0.3,0.73,0.28,2.1,2.59
33820,0.64,-0.31,0.73,-0.77,2.87,0.21
33840,0.64,-0.3,0.73,-3.01,3.64,-2.1
33860,0.63,-0.31,0.72,-2.94,0.77,-1.12
33880,0.63,-0.31,0.73,-1.33,0.49,0.56
33900,0.62,-0.32,0.73,1.54,-2.03,3.22
33920,0.62,-0.32,0.73,3.36,-4.41,4.2
33940,0.63,-0.31,0.73,4.34,-5.04,4.27
33960,0.64,-0.31,0.74,4.62,-5.04,4.41
33980,0.63,-0.31,0.74,4.62,-4.13,3.92
34000,0.63,-0.31,0.74,4.13,-3.99,3.22
34020,0.64,-0.3,0.74,3.15,-2.1,2.52
34040,0.64,-0.3,0.73,1.26,-1.61,0.91
34060,0.64,-0.31,0.73,-0.07,-0.42,-0.42
34080,0.64,-0.31,0.72,-0.84,-0.77,-0.49
34100,0.64,-0.32,0.72,0.28,-0.77,0.56
34120,0.64,-0.31,0.72,1.05,-0.84,1.19
34140,0.64,-0.31,0.73,1.33,-0.07,1.26
34160,0.63,-0.31,0.72,1.47,-0.84,0.84
34180,0.63,-0.32,0.72,1.54,-1.26,0.35
34200,0.64,-0.31,0.73,1.96,-1.68,0.21
34220,0.64,-0.31,0.73,1.47,-1.61,-0.35
34240,0.63,-0.31,0.73,0.0,-1.47,-0.63
34260,0.63,-0.31,0.73,0.42,-2.24,-0.35
34280,0.63,-0.32,0.73,1.19,-2.52,0.14
34300,0.63,-0.31,0.73,1.4,-3.64,0.84
34320,0.63,-0.31,0.73,0.7,-4.55,1.47
34340,0.63,-0.31,0.73,1.47,-5.53,2.24
34360,0.64,-0.3,0.73,1.26,-4.41,1.75
34380,0.64,-0.3,0.73,0.49,-3.57,0.07
34400,0.65,-0.3,0.73,-0.7,-2.24,-2.03
34420,0.65,-0.31,0.72,-0.84,-1.33,-2.31
34440,0.64,-0.32,0.72,-0.98,-1.4,-1.68
34460,0.64,-0.31,0.72,-0.77,-1.05,-1.12
34480,0.65,-0.31,0.72,-0.49,-1.12,-0.35
34500,0.65,-0.31,0.72,0.07,-0.49,-0.7
34520,0.65,-0.31,0.73,-0.49,0.77,-1.19
34540,0.65,-0.31,0.73,-0.77,1.61,-2.31
34560,0.65,-0.31,0.72,-1.82,1.75,-3.85
34580,0.65,-0.31,0.72,-3.71,2.45,-4.76
34600,0.65,-0.32,0.72,-3.43,3.5,-5.39
34620,0.64,-0.31,0.72,-2.8,4.76,-3.78
34640,0.62,-0.31,0.72,0.07,2.24,-1.05
34660,0.63,-0.31,0.73,0.77,0.7,-0.21
34680,0.64,-0.31,0.73,1.47,0.56,-0.7
34700,0.64,-0.31,0.73,0.84,2.45,-0.98
34720,0.63,-0.3,0.74,1.26,0.98,0.0
34740,0.63,-0.3,0.74,-17.64,0.7,-0.84
34760,0.64,-0.3,0.73,-0.84,2.52,-2.66
34780,0.64,-0.3,0.73,-1.12,3.57,-3.5
34800,0.62,-0.31,0.73,-0.56,1.96,-1.96
34820,0.63,-0.31,0.73,-0.7,0.21,-0.56
34840,0.63,-0.3,0.74,0.7,-0.28,0.7
34860,0.63,-0.3,0.74,3.01,-0.42,1.54
34880,0.63,-0.3,0.74,3.01,-0.28,2.03
34900,0.63,-0.3,0.74,2.73,0.0,1.96
34920,0.62,-0.3,0.74,2.45,-1.4,2.24
34940,0.63,-0.3,0.74,3.15,-1.68,2.03
34960,0.63,-0.3,0.74,2.1,-2.1,2.38
34980,0.63,-0.3,0.74,1.4,-1.89,2.38
35000,0.63,-0.3,0.75,2.1,-1.89,2.45
35020,0.63,-0.29,0.74,1.82,-1.82,2.31
35040,0.63,-0.3,0.74,0.77,-1.19,1.89
35060,0.63,-0.3,0.74,0.84,-0.98,1.4
35080,0.63,-0.3,0.74,0.7,-0.63,1.26
35100,0.63,-0.3,0.73,0.77,-1.96,1.61
35120,0.63,-0.31,0.74,0.98,-1.96,2.17
35140,0.63,-0.31,0.74,1.26,-2.03,1.96
35160,0.63,-0.3,0.73,1.54,-1.96,1.89
35180,0.63,-0.3,0.74,1.61,-1.47,1.89
35200,0.63,-0.3,0.74,1.75,-1.4,1.61
35220,0.63,-0.3,0.74,0.77,-0.91,1.19
35240,0.63,-0.3,0.73,1.19,0.0,0.84
35260,0.63,-0.3,0.74,0.84,-0.63,0.63
35280,0.63,-0.3,0.74,0.63,-0.14,0.35
35300,0.62,-0.3,0.74,0.7,-0.91,0.07
35320,0.63,-0.3,0.74,0.56,-0.98,-0.07
35340,0.63,-0.31,0.74,0.14,-1.47,-0.07
35360,0.63,-0.3,0.74,-0.21,-1.61,0.07
35380,0.62,-0.3,0.74,0.21,-2.1,0.14
35400,0.63,-0.31,0.74,-0.21,-2.03,-0.21
35420,0.63,-0.3,0.74,-0.42,-1.82,-0.35
35440,0.63,-0.31,0.74,-0.7,-1.82,-0.49
35460,0.63,-0.3,0.73,-0.42,-1.33,-0.49
35480,0.63,-0.3,0.74,-0.56,-2.03,-0.21
35500,0.63,-0.3,0.74,-0.14,-1.96,-0.14
35520,0.63,-0.3,0.74,-0.28,-1.68,0.21
35540,0.63,-0.3,0.74,-0.77,-1.68,0.0
35560,0.63,-0.3,0.74,-0.21,-1.82,-0.07
35580,0.63,-0.3,0.74,-0.56,-1.19,0.07
35600,0.63,-0.3,0.73,-0.35,-1.4,-0.14
35620,0.63,-0.3,0.74,-0.42,-1.75,0.0
35640,0.63,-0.3,0.74,-0.14,-1.12,0.14
35660,0.63,-0.3,0.73,-0.56,-1.54,0.14
35680,0.63,-0.3,0.74,-0.35,-1.61,0.14
35700,0.63,-0.3,0.73,-0.07,-1.47,0.14
35720,0.63,-0.3,0.74,-0.14,-1.47,0.28
35740,0.63,-0.31,0.73,0.07,-1.61,0.35
35760,0.63,-0.31,0.73,0.28,-1.47,0.28
35780,0.63,-0.3,0.75,-0.21,-1.4,0.07
35800,0.64,-0.3,0.73,2.31,0.35,1.33
35820,0.63,-0.31,0.73,0.7,-0.14,1.12
35840,0.63,-0.31,0.73,1.47,-0.35,0.84
35860,0.63,-0.3,0.74,1.05,-0.21,0.77
35880,0.63,-0.3,0.74,0.91,-0.7,0.63
35900,0.63,-0.3,0.74,1.12,-0.63,0.42
35920,0.63,-0.3,0.74,1.33,-0.28,0.28
35940,0.63,-0.3,0.74,1.61,-0.21,0.77
35960,0.63,-0.31,0.74,1.68,-0.07,0.91
35980,0.63,-0.3,0.74,0.91,0.21,0.7
36000,0.63,-0.3,0.74,0.98,0.14,0.56
36020,0.63,-0.3,0.74,0.7,-0.49,0.28
36040,0.63,-0.3,0.74,0.56,-0.21,0.42
36060,0.63,-0.3,0.74,0.42,-0.42,0.49
36080,0.62,-0.3,0.74,0.91,-0.21,0.49
36100,0.63,-0.3,0.74,1.12,-0.77,0.63
36120,0.62,-0.3,0.74,1.33,-0.98,0.7
36140,0.62,-0.3,0.74,1.68,-0.49,1.05
36160,0.62,-0.3,0.74,1.12,-0.7,0.56
36180,0.62,-0.31,0.74,0.56,-1.61,0.63
36200,0.63,-0.3,0.74,0.77,-2.17,0.42
36220,0.62,-0.3,0.74,-0.35,-2.8,0.14
36240,0.62,-0.3,0.74,-0.21,-3.22,-0.14
36260,0.63,-0.3,0.74,-0.28,-2.94,0.0
36280,0.63,-0.3,0.74,-0.49,-2.73,0.0
36300,0.63,-0.3,0.74,-0.63,-2.38,-0.21
36320,0.63,-0.3,0.74,-0.7,-2.24,-0.42
36340,0.63,-0.3,0.74,-0.91,-2.52,-0.42
36360,0.63,-0.31,0.74,-0.56,-2.03,-0.07
36380,0.63,-0.3,0.74,-0.42,-1.4,-0.14
36400,0.63,-0.3,0.74,0.0,-1.12,-0.21
36420,0.63,-0.3,0.74,0.07,-1.19,-0.07
36440,0.63,-0.3,0.74,0.0,-1.75,0.14
36460,0.63,-0.3,0.74,0.35,-1.89,0.35
36480,0.63,-0.3,0.74,0.0,-1.47,0.0
36500,0.63,-0.3,0.74,0.28,-0.7,-0.28
36520,0.63,-0.3,0.74,0.07,-1.12,-0.14
36540,0.63,-0.3,0.74,0.07,-1.33,-0.28
36560,0.63,-0.3,0.73,0.0,-1.4,-0.28
36580,0.63,-0.3,0.74,0.21,-1.82,-0.07
36600,0.63,-0.31,0.73,0.28,-1.96,-0.07
36620,0.63,-0.31,0.73,0.49,-1.89,0.35
36640,0.63,-0.3,0.73,0.56,-2.24,0.84
36660,0.63,-0.3,0.74,0.42,-2.52,0.49
36680,0.63,-0.3,0.75,-0.14,-0.56,0.7
36700,0.64,-0.3,0.74,1.33,0.63,1.26
36720,0.63,-0.3,0.74,0.35,0.56,0.7
36740,0.63,-0.3,0.74,0.63,-0.28,0.21
36760,0.63,-0.3,0.74,0.28,-0.28,-0.14
36780,0.63,-0.31,0.74,0.35,-0.28,-0.14
36800,0.63,-0.3,0.74,0.91,-0.35,-0.07
36820,0.63,-0.3,0.74,1.19,-0.07,0.21
36840,0.63,-0.3,0.74,0.91,-0.49,0.49
36860,0.63,-0.3,0.74,1.26,-0.35,0.77
36880,0.63,-0.3,0.74,1.05,-0.49,0.91
36900,0.62,-0.3,0.74,1.4,-0.63,0.84
36920,0.63,-0.3,0.74,0.98,-0.77,0.49
36940,0.63,-0.3,0.74,0.49,0.07,0.21
36960,0.63,-0.3,0.74,0.42,0.42,-0.42
36980,0.63,-0.3,0.74,0.49,-0.56,-0.42
37000,0.63,-0.3,0.74,0.63,-0.35,0.63
37020,0.63,-0.3,0.74,1.75,0.14,0.98
37040,0.62,-0.3,0.74,1.89,-0.49,0.84
37060,0.62,-0.3,0.74,1.54,-1.54,1.05
37080,0.63,-0.3,0.74,1.54,-0.98,1.12
37100,0.62,-0.3,0.74,1.47,-1.26,0.98
37120,0.62,-0.3,0.74,0.91,-1.54,0.49
37140,0.62,-0.3,0.74,0.35,-2.66,0.84
37160,0.63,-0.3,0.74,0.07,-2.66,0.42
37180,0.62,-0.3,0.74,0.21,-2.94,0.49
37200,0.62,-0.3,0.74,0.42,-3.5,1.19
37220,0.63,-0.3,0.74,0.14,-3.71,1.19
37240,0.63,-0.3,0.74,-0.63,-3.71,0.98
37260,0.63,-0.3,0.75,-0.84,-2.45,0.7
37280,0.63,-0.3,0.74,-1.05,-2.1,-0.42
37300,0.63,-0.3,0.74,-0.35,-2.1,-1.05
37320,0.63,-0.3,0.74,-0.98,-2.17,-0.35
37340,0.63,-0.3,0.74,-0.91,-2.1,-0.42
37360,0.63,-0.3,0.74,-0.56,-1.82,-0.49
37380,0.63,-0.3,0.74,-0.21,-1.4,-0.07
37400,0.63,-0.3,0.74,-0.35,-1.47,-0.07
37420,0.63,-0.3,0.73,-0.14,-0.84,-0.28
37440,0.63,-0.3,0.74,-0.14,-0.63,-0.35
37460,0.63,-0.3,0.74,-0.28,-1.05,-0.35
37480,0.63,-0.3,0.74,-0.07,-0.84,-0.35
37500,0.63,-0.3,0.74,-0.49,-0.91,-0.56
37520,0.63,-0.3,0.74,-0.21,-1.26,-0.28
37540,0.63,-0.3,0.74,-0.07,-1.05,0.07
37560,0.63,-0.3,0.74,0.14,-0.84,0.28
37580,0.63,-0.3,0.74,0.42,-1.61,0.0
37600,0.63,-0.31,0.74,0.98,-2.24,0.49
37620,0.63,-0.3,0.74,1.68,-2.59,1.96
37640,0.63,-0.3,0.74,0.21,-2.24,1.33
37660,0.63,-0.3,0.74,0.0,-1.4,0.35
37680,0.63,-0.3,0.73,-0.63,-0.84,-0.21
37700,0.63,-0.3,0.73,-0.7,-1.19,-0.42
37720,0.63,-0.3,0.75,-0.7,-0.98,-0.56
37740,0.64,-0.3,0.74,0.21,0.91,-0.35
37760,0.64,-0.31,0.73,0.21,17.85,-0.14
37780,0.63,-0.31,0.73,0.84,0.0,0.28
37800,0.63,-0.3,0.74,0.98,0.07,0.56
37820,0.63,-0.29,0.74,0.91,0.07,0.42
37840,0.63,-0.3,0.74,1.05,0.21,0.07
37860,0.63,-0.3,0.74,0.84,0.14,-0.14
37880,0.63,-0.3,0.74,0.7,0.35,-0.21
37900,0.63,-0.3,0.74,0.91,0.49,-0.07
37920,0.63,-0.3,0.74,0.91,0.84,0.14
37940,0.63,-0.3,0.74,0.77,0.0,0.14
37960,0.63,-0.3,0.74,0.35,-0.14,0.49
37980,0.63,-0.31,0.74,1.12,-0.56,0.7
38000,0.63,-0.3,0.75,1.12,-0.7,0.49
38020,0.63,-0.3,0.74,1.05,-0.77,0.77
38040,0.63,-0.3,0.74,0.91,-1.05,0.63
38060,0.63,-0.3,0.74,0.7,-0.7,0.7
38080,0.63,-0.3,0.74,0.98,-0.77,0.7
38100,0.63,-0.3,0.74,0.56,-0.84,0.56
38120,0.63,-0.3,0.74,0.98,-0.84,0.77
38140,0.62,-0.3,0.74,0.77,-1.4,0.42
38160,0.63,-0.3,0.74,0.98,-1.33,0.56
38180,0.63,-0.3,0.75,1.05,-1.33,0.77
38200,0.63,-0.3,0.74,1.26,-1.05,0.63
38220,0.62,-0.31,0.74,0.7,-1.33,0.49
38240,0.62,-0.31,0.74,0.98,-1.68,0.56
38260,0.62,-0.3,0.74,0.49,-2.87,0.21
38280,0.62,-0.3,0.74,-0.14,-3.08,0.14
38300,0.63,-0.31,0.75,0.07,-3.01,0.14
38320,0.63,-0.3,0.74,0.0,-2.52,0.21
38340,0.63,-0.29,0.74,-0.35,-2.59,0.35
38360,0.63,-0.3,0.74,-0.84,-2.45,-0.14
38380,0.63,-0.3,0.74,-0.84,-2.38,-0.42
38400,0.63,-0.3,0.74,-0.7,-2.73,-0.35
38420,0.63,-0.3,0.74,-0.49,-2.24,0.21
38440,0.63,-0.29,0.74,0.0,-2.24,-0.07
38460,0.63,-0.3,0.74,-0.28,-2.03,-0.28
38480,0.63,-0.3,0.74,-0.14,-2.17,-0.07
38500,0.63,-0.3,0.74,-0.21,-1.19,0.07
38520,0.63,-0.3,0.74,0.07,-1.47,-0.14
38540,0.63,-0.3,0.74,-0.07,-1.61,-0.35
38560,0.63,-0.3,0.74,0.07,-0.77,-0.21
38580,0.63,-0.3,0.74,-0.21,-0.91,-0.42
38600,0.63,-0.3,0.74,-0.35,-0.49,0.07
38620,0.63,-0.3,0.74,-0.14,-0.91,0.0
38640,0.63,-0.3,0.74,-0.07,-0.84,-0.35
38660,0.63,-0.3,0.74,0.28,-1.26,0.14
38680,0.63,-0.3,0.74,0.07,-1.19,0.21
38700,0.64,-0.29,0.75,0.91,1.33,-1.68
38720,0.65,-0.3,0.73,-2.45,2.73,-5.25
38740,0.63,-0.32,0.72,-2.59,0.84,-3.5
38760,0.62,-0.31,0.74,-0.28,0.0,-0.28
38780,0.62,-0.3,0.74,1.05,-3.22,3.36
38800,0.62,-0.29,0.75,1.4,-3.5,4.55
38820,0.63,-0.29,0.75,2.87,-2.31,3.43
38840,0.63,-0.29,0.75,2.87,-1.61,2.24
38860,0.63,-0.29,0.75,1.4,-0.42,1.26
38880,0.63,-0.29,0.74,-0.63,-0.14,-0.28
38900,0.64,-0.3,0.74,-0.84,-0.35,-1.47
38920,0.63,-0.3,0.74,-0.56,0.07,-1.05
38940,0.64,-0.31,0.74,0.28,0.0,-0.21
38960,0.63,-0.3,0.73,0.28,-0.28,0.91
38980,0.63,-0.31,0.74,1.54,-0.77,1.75
39000,0.63,-0.31,0.74,2.1,-0.77,1.82
39020,0.63,-0.3,0.74,2.24,-0.84,1.75
39040,0.63,-0.3,0.74,1.89,-1.05,1.54
39060,0.62,-0.3,0.74,1.47,-0.7,1.19
39080,0.62,-0.3,0.74,0.63,-0.91,0.7
39100,0.62,-0.3,0.75,0.35,-1.26,0.35
39120,0.63,-0.31,0.73,-0.35,-2.31,0.63
39140,0.62,-0.31,0.74,1.75,-4.83,3.36
39160,0.62,-0.3,0.75,2.59,-4.48,5.11
39180,0.64,-0.3,0.75,1.19,-3.29,4.76
39200,0.62,-0.31,0.73,0.56,-5.6,4.76
39220,0.63,-0.31,0.74,-0.28,-6.3,4.62
39240,0.64,-0.3,0.75,-2.45,-3.78,4.83
39260,0.62,-0.31,0.75,-1.4,-6.65,5.67
39280,0.63,-0.3,0.73,-3.08,-6.79,5.11
39300,0.64,-0.31,0.73,-3.5,-6.86,5.18
39320,0.63,-0.31,0.74,-3.01,-9.1,5.39
39340,0.64,-0.31,0.72,-3.22,-7.49,4.76
39360,0.64,-0.32,0.73,-1.68,-8.75,5.53
39380,0.65,-0.32,0.73,-3.71,-8.96,5.18
39400,0.66,-0.3,0.72,-5.95,-3.29,3.99
39420,0.63,-0.33,0.71,-5.53,-7.0,4.97
39440,0.63,-0.34,0.72,-2.1,-8.82,4.97
39460,0.64,-0.33,0.73,-1.68,-6.93,2.1
39480,0.65,-0.32,0.71,-5.11,-3.36,0.0
39500,0.65,-0.33,0.7,-4.48,-3.36,-2.1
39520,0.65,-0.34,0.7,-3.57,-3.08,-3.29
39540,0.66,-0.35,0.71,-2.17,-1.26,-3.85
39560,0.66,-0.35,0.69,-1.68,-0.77,-4.13
39580,0.65,-0.35,0.7,-0.98,-0.21,-3.08
39600,0.64,-0.34,0.7,-0.35,-0.84,-1.82
39620,0.66,-0.33,0.71,1.19,1.4,-0.91
39640,0.66,-0.33,0.71,0.0,3.08,-0.63
39660,0.65,-0.33,0.71,-0.63,3.57,-0.42
39680,0.65,-0.32,0.72,-0.63,3.5,-0.14
39700,0.64,-0.32,0.72,-1.12,3.22,-0.56
39720,0.63,-0.32,0.72,-0.91,2.31,-0.84
39740,0.64,-0.32,0.72,0.49,1.4,-0.49
39760,0.64,-0.32,0.72,-0.35,0.98,-0.49
39780,0.64,-0.33,0.72,0.28,0.35,-0.07
39800,0.64,-0.33,0.72,0.63,0.63,0.21
39820,0.64,-0.33,0.72,0.98,0.63,0.7
39840,0.64,-0.33,0.72,1.4,-0.42,0.84
39860,0.64,-0.33,0.72,0.28,0.49,0.63
39880,0.64,-0.33,0.72,0.84,0.0,0.91
39900,0.63,-0.33,0.72,0.7,-0.21,0.63
39920,0.64,-0.33,0.72,0.63,-0.42,0.28
39940,0.64,-0.33,0.72,0.91,-1.26,0.56
39960,0.64,-0.33,0.72,0.49,-0.42,0.49
39980,0.63,-0.33,0.72,0.98,-1.19,0.84
40000,0.63,-0.33,0.72,1.05,-1.47,1.47
40020,0.63,-0.33,0.72,0.91,-1.47,1.19
40040,0.63,-0.34,0.72,1.05,-2.45,0.56
40060,0.64,-0.34,0.72,0.0,-3.01,0.49
40080,0.64,-0.33,0.72,-0.49,-3.36,0.35
40100,0.64,-0.33,0.72,0.07,-3.36,0.49
40120,0.64,-0.33,0.72,0.0,-3.29,0.77
40140,0.64,-0.33,0.72,-0.42,-3.36,0.7
40160,0.64,-0.33,0.72,-0.7,-3.36,0.21
40180,0.65,-0.33,0.72,-1.26,-2.03,0.49
40200,0.64,-0.33,0.72,-0.14,-2.52,0.42
40220,0.64,-0.33,0.71,-0.35,-2.17,-0.14
40240,0.65,-0.33,0.72,-1.05,-1.68,-0.77
40260,0.64,-0.33,0.71,-0.07,-1.4,-0.28
40280,0.64,-0.33,0.71,0.14,-2.17,-0.63
40300,0.65,-0.33,0.72,-0.21,-0.63,-0.49
40320,0.64,-0.33,0.71,0.07,-1.26,0.0
40340,0.64,-0.33,0.72,-0.49,-1.61,-0.35
40360,0.64,-0.33,0.72,0.14,-1.68,-0.28
40380,0.64,-0.33,0.72,0.07,-2.52,0.35
40400,0.65,-0.33,0.72,-17.85,-1.89,0.0
40420,0.65,-0.33,0.72,-0.21,-1.4,0.21
40440,0.64,-0.33,0.73,0.14,-0.56,0.21
40460,0.65,-0.33,0.71,0.21,0.7,0.07
40480,0.64,-0.33,0.71,-0.28,0.0,0.28
40500,0.64,-0.34,0.71,0.28,0.35,-0.14
40520,0.64,-0.33,0.72,0.63,0.28,-0.49
40540,0.64,-0.33,0.71,0.28,-0.21,0.14
40560,0.64,-0.33,0.72,0.91,-0.42,0.56
40580,0.64,-0.33,0.72,0.7,0.07,0.56
40600,0.64,-0.33,0.72,0.84,-0.21,0.21
40620,0.64,-0.33,0.72,0.91,0.63,0.21
40640,0.64,-0.33,0.72,1.89,0.77,0.28
40660,0.64,-0.33,0.72,0.7,0.56,-0.14
40680,0.64,-0.33,0.72,0.28,0.7,-0.35
40700,0.64,-0.33,0.72,0.28,0.07,-0.21
40720,0.64,-0.34,0.72,0.49,0.0,-0.07
40740,0.63,-0.33,0.72,0.49,0.07,0.0
40760,0.64,-0.33,0.72,0.49,0.07,0.0
40780,0.64,-0.33,0.72,0.7,-0.35,0.0
40800,0.64,-0.33,0.72,0.42,-0.07,0.42
40820,0.63,-0.34,0.72,1.05,-0.91,0.91
40840,0.63,-0.33,0.72,0.91,-0.56,0.49
40860,0.63,-0.33,0.72,1.05,-1.54,0.35
40880,0.63,-0.34,0.73,0.35,-2.8,0.56
40900,0.64,-0.33,0.72,0.28,-2.87,0.49
40920,0.63,-0.33,0.72,0.7,-3.29,0.49
40940,0.64,-0.33,0.72,-17.85,-2.59,0.28
40960,0.64,-0.33,0.72,-0.07,-2.94,0.21
40980,0.63,-0.33,0.72,-0.28,-2.73,0.07
41000,0.64,-0.33,0.72,-0.28,-3.15,0.21
41020,0.64,-0.33,0.72,-0.77,-2.8,0.0
41040,0.64,-0.33,0.72,-0.35,-2.94,-0.07
41060,0.64,-0.33,0.72,-0.42,-2.45,-0.14
41080,0.64,-0.33,0.72,-0.42,-2.1,-0.07
41100,0.64,-0.33,0.71,-0.35,-2.66,0.14
41120,0.65,-0.33,0.72,-0.14,-2.03,0.28
41140,0.64,-0.33,0.72,-0.07,-1.61,0.14
41160,0.64,-0.33,0.71,-0.35,-1.61,-0.07
41180,0.64,-0.33,0.72,0.07,-1.47,0.21
41200,0.65,-0.33,0.72,0.28,-1.26,0.35
41220,0.64,-0.33,0.72,0.07,-1.12,0.14
41240,0.64,-0.33,0.71,-0.21,-1.47,0.0
41260,0.64,-0.33,0.72,0.07,-1.19,0.21
41280,0.64,-0.33,0.71,-0.35,-1.12,0.21
41300,0.64,-0.33,0.72,-0.35,-1.47,-0.28
41320,0.64,-0.33,0.72,-0.07,-1.61,0.07
41340,0.64,-0.33,0.72,0.14,-1.54,0.63
41360,0.64,-0.33,0.72,0.0,-1.26,0.14
41380,0.64,-0.33,0.72,-0.21,-1.82,0.07
41400,0.64,-0.33,0.72,0.07,-1.68,0.35
41420,0.64,-0.33,0.72,0.14,-1.82,0.21
41440,0.65,-0.33,0.71,0.07,-1.33,0.21
41460,0.65,-0.33,0.71,0.28,-1.54,0.35
41480,0.64,-0.33,0.71,0.35,-1.68,0.07
41500,0.65,-0.34,0.72,0.14,-1.82,0.35
41520,0.65,-0.33,0.72,1.26,0.07,0.91
41540,0.65,-0.33,0.71,1.05,-0.42,0.56
41560,0.64,-0.33,0.71,0.28,-0.07,0.07
41580,0.64,-0.33,0.72,0.49,0.07,0.07
41600,0.64,-0.33,0.72,0.35,-0.21,0.07
41620,0.65,-0.33,0.72,0.35,0.14,-0.07
41640,0.64,-0.33,0.71,0.49,-0.07,0.07
41660,0.64,-0.33,0.71,0.63,0.14,0.35
41680,0.64,-0.33,0.72,0.77,-0.07,0.14
41700,0.65,-0.33,0.72,0.0,0.84,-0.42
41720,0.64,-0.33,0.72,0.21,0.42,-0.14
41740,0.64,-0.33,0.71,0.42,0.56,-0.21
41760,0.64,-0.33,0.72,0.0,0.91,-0.21
41780,0.64,-0.34,0.72,0.56,0.49,0.14
41800,0.64,-0.33,0.72,0.98,1.05,0.14
41820,0.63,-0.33,0.72,0.98,0.21,0.35
41840,0.64,-0.33,0.72,1.33,-0.07,0.49
41860,0.64,-0.33,0.72,0.63,0.14,0.14
41880,0.64,-0.33,0.72,0.77,0.0,0.42
41900,0.64,-0.33,0.72,0.7,-0.14,0.49
41920,0.64,-0.33,0.72,0.56,0.07,0.28
41940,0.63,-0.33,0.72,0.28,-0.14,-0.07
41960,0.63,-0.33,0.72,0.49,-0.56,0.49
41980,0.64,-0.33,0.72,0.98,-0.7,0.7
42000,0.63,-0.33,0.72,1.12,-1.26,0.7
42020,0.63,-0.33,0.72,1.19,-1.54,0.7
42040,0.63,-0.33,0.72,0.91,-1.96,0.56
42060,0.63,-0.33,0.72,0.56,-2.45,0.28
42080,0.63,-0.33,0.73,0.56,-2.66,0.56
42100,0.63,-0.33,0.72,0.14,-1.96,0.63
42120,0.63,-0.33,0.72,0.14,-2.31,0.21
42140,0.63,-0.33,0.72,-0.14,-2.52,0.0
42160,0.64,-0.33,0.72,0.21,-2.45,0.07
42180,0.64,-0.33,0.72,-0.21,-2.31,0.14
42200,0.64,-0.33,0.72,-0.35,-2.24,0.07
42220,0.64,-0.33,0.72,-0.35,-1.96,0.28
42240,0.64,-0.33,0.72,0.0,-2.66,0.42
42260,0.64,-0.33,0.72,-0.28,-2.31,0.07
42280,0.64,-0.33,0.72,0.14,-2.73,0.07
42300,0.64,-0.33,0.72,-0.14,-2.38,0.28
42320,0.64,-0.33,0.72,-0.49,-1.75,0.35
42340,0.64,-0.33,0.72,-0.28,-1.47,0.0
42360,0.64,-0.33,0.72,0.0,-1.47,0.14
42380,0.64,-0.33,0.71,0.21,-1.4,0.21
42400,0.64,-0.33,0.72,-0.07,-1.96,0.21
42420,0.64,-0.34,0.72,-0.42,-1.61,0.77
42440,0.64,-0.33,0.72,0.49,-1.54,0.28
42460,0.64,-0.33,0.72,-0.21,-1.61,-0.07
42480,0.63,-0.33,0.72,-0.35,-1.96,0.35
42500,0.64,-0.33,0.72,-0.14,-1.47,0.35
42520,0.64,-0.33,0.72,0.07,-1.89,0.07
42540,0.64,-0.33,0.72,-0.49,-1.61,0.14
42560,0.64,-0.33,0.71,0.14,-2.03,0.35
42580,0.64,-0.33,0.72,-0.28,-1.33,0.07
42600,0.64,-0.34,0.71,-0.14,-1.82,0.14
42620,0.64,-0.33,0.72,0.07,-2.1,0.35
42640,0.64,-0.33,0.71,0.14,-1.68,0.42
42660,0.64,-0.34,0.72,0.21,-1.68,0.28
42680,0.64,-0.33,0.71,0.28,-1.47,0.42
42700,0.64,-0.33,0.71,0.21,-1.33,0.14
42720,0.64,-0.33,0.71,0.14,-1.61,0.21
42740,0.64,-0.34,0.71,0.63,-1.54,0.49
42760,0.64,-0.34,0.71,0.49,-1.82,0.21
42780,0.64,-0.33,0.72,0.63,-0.56,0.49
42800,0.65,-0.33,0.71,1.19,-0.49,0.7
42820,0.64,-0.33,0.72,0.42,-0.42,0.7
42840,0.64,-0.33,0.71,0.56,0.14,0.07
42860,0.64,-0.33,0.72,0.49,0.0,-0.07
42880,0.64,-0.33,0.72,0.42,0.28,0.14
42900,0.64,-0.33,0.72,0.7,0.07,0.07
42920,0.64,-0.33,0.72,0.49,-0.21,-0.28
42940,0.64,-0.33,0.72,0.77,-0.28,0.0
42960,0.64,-0.33,0.72,0.77,0.0,0.14
42980,0.64,-0.33,0.72,0.35,0.28,-0.21
43000,0.65,-0.33,0.72,0.77,1.12,-0.56
43020,0.64,-0.33,0.72,0.98,2.1,-1.33
43040,0.63,-0.34,0.71,1.19,1.05,-2.52
43060,0.64,-0.34,0.72,1.54,1.33,-1.75
43080,0.65,-0.33,0.72,0.49,1.68,-1.96
43100,0.64,-0.33,0.72,0.21,2.94,-1.89
43120,0.63,-0.33,0.72,0.91,2.38,-1.89
43140,0.64,-0.33,0.72,1.26,2.17,-1.96
43160,0.63,-0.33,0.72,1.82,1.96,-1.47
43180,0.64,-0.32,0.72,0.91,1.89,-2.03
43200,0.63,-0.32,0.72,0.91,2.17,-1.82
43220,0.63,-0.32,0.73,1.26,1.33,-1.89
43240,0.63,-0.32,0.73,1.75,1.47,-1.96
43260,0.63,-0.32,0.73,0.91,1.4,-1.96
43280,0.63,-0.33,0.73,0.84,1.82,-3.08
43300,0.63,-0.33,0.73,-0.28,2.17,-5.25
43320,0.63,-0.32,0.74,-0.63,4.55,-5.53
43340,0.63,-0.33,0.73,0.21,3.08,-7.21
43360,0.65,-0.32,0.73,-3.15,9.03,-8.96
43380,0.65,-0.32,0.73,-4.69,11.76,-8.05
43400,0.62,-0.31,0.74,-5.81,9.66,-5.46
43420,0.6,-0.33,0.73,-4.06,5.04,-5.67
43440,0.63,-0.32,0.74,-2.87,7.63,-6.86
43460,0.64,-0.32,0.75,-2.73,9.87,-5.6
43480,0.6,-0.31,0.74,-1.4,5.32,-0.77
43500,0.59,-0.31,0.75,1.89,-0.14,0.56
43520,0.59,-0.31,0.75,5.32,-3.22,1.19
43540,0.6,-0.31,0.76,7.0,-7.0,2.31
43560,0.61,-0.3,0.76,7.21,-6.72,2.52
43580,0.61,-0.29,0.76,5.67,-6.3,2.45
43600,0.61,-0.3,0.76,4.06,-5.74,1.89
43620,0.62,-0.3,0.76,2.45,-4.62,1.54
43640,0.61,-0.3,0.75,1.54,-4.69,1.47
43660,0.62,-0.31,0.75,0.56,-5.11,0.98
43680,0.62,-0.31,0.75,0.21,-4.9,1.4
43700,0.62,-0.31,0.74,1.4,-6.02,2.31
43720,0.63,-0.31,0.74,0.84,-5.04,2.66
43740,0.63,-0.31,0.74,1.54,-4.9,2.17
43760,0.64,-0.3,0.74,0.98,-4.06,1.47
43780,0.64,-0.3,0.74,0.84,-3.43,0.63
43800,0.63,-0.3,0.75,0.98,-1.96,0.35
43820,0.64,-0.3,0.73,1.96,-0.56,0.77
43840,0.63,-0.3,0.73,1.26,-0.28,0.84
43860,0.63,-0.31,0.74,1.4,0.21,0.28
43880,0.63,-0.31,0.74,1.12,0.0,-0.07
43900,0.63,-0.3,0.74,1.05,0.14,-0.21
43920,0.63,-0.3,0.74,1.26,0.77,-0.21
43940,0.62,-0.31,0.74,0.56,0.14,-0.35
43960,0.62,-0.3,0.74,0.77,0.84,-0.56
43980,0.62,-0.31,0.74,0.84,0.77,-0.35
44000,0.62,-0.3,0.74,0.84,0.0,-0.28
44020,0.63,-0.3,0.75,0.77,0.14,-0.07
44040,0.62,-0.3,0.75,0.7,0.21,0.07
44060,0.62,-0.31,0.74,1.19,-0.7,0.07
44080,0.62,-0.3,0.75,1.4,-0.91,0.84
44100,0.62,-0.3,0.75,1.47,-0.98,1.19
44120,0.62,-0.3,0.75,1.61,-1.05,0.91
44140,0.62,-0.3,0.74,0.98,-1.12,0.77
44160,0.62,-0.3,0.75,0.98,-1.68,0.84
44180,0.62,-0.3,0.75,1.4,-1.61,0.91
44200,0.62,-0.3,0.75,1.33,-2.31,0.7
44220,0.63,-0.3,0.75,1.05,-2.03,1.05
44240,0.62,-0.31,0.74,1.82,-2.31,1.47
44260,0.62,-0.32,0.74,1.96,-4.41,1.82
44280,0.62,-0.31,0.75,2.38,-5.88,3.99
44300,0.62,-0.3,0.75,1.89,-6.09,4.2
44320,0.63,-0.29,0.75,0.63,-5.67,2.94
44340,0.63,-0.3,0.74,-0.14,-4.83,1.96
44360,0.63,-0.3,0.75,-1.19,-3.57,0.98
44380,0.63,-0.3,0.74,-1.68,-2.17,-0.28
44400,0.63,-0.3,0.73,-1.61,-1.12,-1.05
44420,0.63,-0.31,0.73,-1.82,-1.33,-1.47
44440,0.63,-0.32,0.73,-1.19,-1.12,-1.33
44460,0.63,-0.31,0.74,-0.63,-0.98,-0.7
44480,0.63,-0.31,0.74,-0.14,-1.05,0.0
44500,0.63,-0.31,0.74,0.42,-1.96,0.35
44520,0.63,-0.31,0.74,0.91,-1.75,0.7
44540,0.63,-0.31,0.74,1.4,-1.68,0.63
44560,0.63,-0.3,0.74,0.35,-1.19,0.42
44580,0.63,-0.3,0.74,-0.35,-0.84,-0.28
44600,0.63,-0.31,0.74,-0.42,-0.84,-0.63
44620,0.63,-0.3,0.74,-0.91,-0.56,-0.84
44640,0.63,-0.3,0.74,-0.77,-1.19,-0.91
44660,0.63,-0.31,0.74,-0.56,-0.63,-0.49
44680,0.63,-0.31,0.74,-0.21,-0.84,-0.28
44700,0.63,-0.31,0.74,-0.21,-1.19,0.21
44720,0.63,-0.31,0.74,0.28,-1.26,0.14
44740,0.63,-0.31,0.74,0.56,-1.61,0.56
44760,0.63,-0.31,0.74,0.98,-1.96,0.49
44780,0.63,-0.3,0.74,0.35,-1.96,0.21
44800,0.63,-0.3,0.74,0.42,-1.82,0.49
44820,0.63,-0.3,0.74,0.42,-1.75,0.56
44840,0.63,-0.3,0.74,-0.35,-1.68,0.14
44860,0.63,-0.3,0.74,0.28,-2.1,0.35
44880,0.63,-0.31,0.74,0.07,-2.17,0.35
44900,0.63,-0.3,0.75,0.7,-0.28,0.42
44920,0.64,-0.31,0.74,1.4,-0.21,0.7
44940,0.63,-0.31,0.73,0.56,0.07,0.42
44960,0.63,-0.31,0.73,0.49,-0.28,0.21
44980,0.63,-0.31,0.74,0.21,-0.7,0.42
45000,0.63,-0.31,0.74,0.63,-0.49,0.14
45020,0.63,-0.3,0.74,0.7,-0.21,0.21
45040,0.63,-0.31,0.74,1.33,-0.56,0.28
45060,0.63,-0.31,0.74,0.98,-0.42,0.28
45080,0.63,-0.31,0.74,0.91,0.28,0.14
45100,0.63,-0.3,0.74,0.42,0.56,0.14
45120,0.63,-0.31,0.74,0.42,0.07,0.42
45140,0.63,-0.3,0.74,0.91,0.14,0.14
45160,0.63,-0.3,0.74,0.7,-0.07,-0.07
45180,0.63,-0.3,0.74,0.49,-0.49,0.21
45200,0.63,-0.31,0.74,0.63,-0.35,0.28
45220,0.62,-0.3,0.74,0.7,-0.07,0.21
45240,0.62,-0.3,0.75,0.77,-0.28,0.0
45260,0.63,-0.3,0.74,0.35,-0.35,0.28
45280,0.63,-0.3,0.74,0.07,-0.35,0.35
45300,0.63,-0.31,0.74,0.56,-0.14,0.07
45320,0.62,-0.3,0.74,0.28,0.07,-0.07
45340,0.62,-0.3,0.74,0.84,-0.63,0.21
45360,0.62,-0.3,0.75,1.12,-1.05,0.63
45380,0.63,-0.3,0.74,1.33,-1.19,0.77
45400,0.62,-0.3,0.74,1.33,-1.12,0.7
45420,0.62,-0.31,0.74,1.12,-1.82,0.63
45440,0.62,-0.3,0.74,0.91,-2.1,0.42
45460,0.63,-0.3,0.75,0.49,-2.8,0.14
45480,0.62,-0.3,0.74,0.14,-2.24,0.21
45500,0.62,-0.31,0.74,0.35,-2.31,0.49
45520,0.63,-0.31,0.74,-0.42,-2.03,0.56
45540,0.63,-0.31,0.74,-0.28,-2.17,0.35
45560,0.63,-0.3,0.74,-0.77,-2.66,0.0
45580,0.63,-0.3,0.74,-0.42,-3.01,-0.14
45600,0.63,-0.31,0.74,-0.63,-2.8,-0.14
45620,0.63,-0.31,0.74,-0.21,-2.38,-0.35
45640,0.63,-0.3,0.74,-0.14,-2.66,-0.35
45660,0.63,-0.3,0.74,-0.35,-2.59,-0.07
45680,0.63,-0.31,0.74,-0.49,-2.17,0.0
45700,0.63,-0.3,0.74,-0.14,-2.1,-0.07
45720,0.63,-0.3,0.74,-0.07,-1.61,0.0
45740,0.63,-0.3,0.74,-0.14,-1.68,0.0
45760,0.63,-0.3,0.74,-0.14,-1.68,0.0
45780,0.63,-0.3,0.74,-0.63,-1.61,-0.28
45800,0.63,-0.3,0.74,-0.07,-1.33,-0.21
45820,0.63,-0.31,0.74,-0.56,-1.12,-0.07
45840,0.63,-0.31,0.74,-0.21,-1.26,-0.14
45860,0.63,-0.31,0.74,-0.28,-1.54,0.14
45880,0.63,-0.3,0.74,-0.07,-1.33,0.14
45900,0.63,-0.31,0.74,0.07,-1.4,0.35
45920,0.63,-0.31,0.74,-0.14,-1.47,0.28
45940,0.63,-0.31,0.74,0.28,-1.68,0.28
45960,0.63,-0.31,0.74,0.35,-1.89,0.35
45980,0.63,-0.31,0.74,0.42,-1.26,0.42
46000,0.63,-0.31,0.74,0.21,-1.19,0.49
46020,0.63,-0.31,0.74,0.28,-1.61,0.07
46040,0.63,-0.3,0.73,0.49,-1.82,0.35
46060,0.63,-0.31,0.74,0.77,-1.82,0.42
46080,0.63,-0.3,0.74,0.07,-1.61,0.21
46100,0.63,-0.3,0.73,-0.07,-2.03,0.14
46120,0.63,-0.3,0.74,0.49,-0.77,0.63
46140,0.64,-0.3,0.73,0.84,0.14,0.7
46160,0.63,-0.31,0.73,0.63,0.28,0.49
46180,0.63,-0.31,0.73,0.56,-0.21,0.21
46200,0.63,-0.3,0.74,0.14,-0.35,-0.07
46220,0.63,-0.3,0.74,0.42,-0.21,0.14
46240,0.63,-0.31,0.74,0.49,0.07,0.07
46260,0.63,-0.3,0.73,1.12,0.49,0.14
46280,0.63,-0.31,0.74,0.7,-0.14,0.21
46300,0.63,-0.3,0.74,0.28,-0.07,0.14
46320,0.63,-0.3,0.74,0.21,0.77,0.14
46340,0.63,-0.3,0.74,0.63,0.21,0.07
46360,0.63,-0.3,0.74,0.49,0.14,0.14
46380,0.63,-0.3,0.74,0.49,0.14,0.28
46400,0.63,-0.3,0.74,0.7,-0.28,0.28
46420,0.62,-0.3,0.74,0.7,-0.77,0.42
46440,0.63,-0.3,0.74,0.98,-0.7,0.56
46460,0.63,-0.31,0.74,0.63,-0.56,0.42
46480,0.63,-0.3,0.74,0.42,-0.63,0.56
46500,0.62,-0.3,0.74,0.63,-0.42,0.56
46520,0.62,-0.3,0.74,0.49,-0.63,0.42
46540,0.62,-0.3,0.74,0.56,-0.63,0.56
46560,0.62,-0.3,0.74,0.56,-0.56,0.63
46580,0.63,-0.31,0.74,1.26,-1.05,0.63
46600,0.62,-0.3,0.74,1.33,-1.47,0.77
46620,0.62,-0.31,0.74,1.47,-1.68,0.7
46640,0.62,-0.31,0.74,0.84,-2.31,0.56
46660,0.62,-0.3,0.74,0.07,-2.94,0.28
46680,0.63,-0.31,0.74,-0.07,-2.94,0.21
46700,0.62,-0.31,0.74,0.35,-3.01,0.21
46720,0.63,-0.31,0.74,-0.42,-2.59,0.28
46740,0.63,-0.3,0.74,-0.14,-2.38,0.28
46760,0.63,-0.3,0.74,-0.63,-2.31,0.0
46780,0.63,-0.3,0.74,-0.49,-2.45,-0.14
46800,0.63,-0.3,0.74,-0.42,-2.45,-0.14
46820,0.63,-0.3,0.74,-0.07,-2.45,-0.07
46840,0.63,-0.3,0.74,0.0,-2.59,0.0
46860,0.64,-0.3,0.74,-0.49,-2.45,0.14
46880,0.63,-0.31,0.74,-0.35,-2.24,0.21
46900,0.63,-0.31,0.73,-0.28,-2.24,0.0
46920,0.63,-0.31,0.73,-0.07,-2.59,0.91
46940,0.63,-0.31,0.74,0.49,-3.85,1.82
46960,0.63,-0.3,0.74,0.42,-3.01,2.1
46980,0.63,-0.3,0.74,-0.21,-2.45,1.75
47000,0.63,-0.3,0.73,-1.26,-2.03,0.7
47020,0.63,-0.31,0.73,-1.33,-1.89,-0.42
47040,0.63,-0.31,0.73,-1.75,-1.75,-0.91
47060,0.63,-0.32,0.73,-1.4,-2.17,-1.05
47080,0.64,-0.31,0.73,-1.05,-0.91,-0.84
47100,0.63,-0.31,0.73,-0.91,-1.26,-0.42
47120,0.64,-0.31,0.73,-0.84,-1.47,0.0
47140,0.63,-0.31,0.73,-0.21,-1.68,0.49
47160,0.63,-0.3,0.73,0.56,-2.17,0.91
47180,0.63,-0.3,0.73,0.84,-2.45,0.84
47200,0.64,-0.3,0.73,0.42,-2.1,0.42
47220,0.63,-0.31,0.73,0.28,-1.82,-0.14
47240,0.64,-0.3,0.74,2.66,0.42,0.56
47260,0.64,-0.3,0.73,0.77,0.42,0.28
47280,0.64,-0.31,0.73,0.07,0.98,-0.07
47300,0.63,-0.31,0.73,-0.14,1.33,-0.56
47320,0.63,-0.31,0.73,0.21,1.33,-0.63
47340,0.64,-0.31,0.73,-0.42,1.96,-0.91
47360,0.63,-0.31,0.73,-0.07,2.45,-1.68
47380,0.63,-0.31,0.73,-0.21,2.8,-1.96
47400,0.63,-0.31,0.73,0.07,2.03,-1.19
47420,0.63,-0.31,0.74,0.35,1.82,-0.21
47440,0.63,-0.3,0.74,0.14,2.31,-0.35
47460,0.62,-0.3,0.74,-0.21,2.17,-0.49
47480,0.62,-0.31,0.74,0.35,1.33,-0.21
47500,0.63,-0.3,0.74,0.21,1.26,-0.28
47520,0.63,-0.3,0.74,-0.28,1.75,-0.28
47540,0.62,-0.31,0.74,-0.98,1.54,-0.07
47560,0.62,-0.31,0.74,-0.49,1.89,-0.07
47580,0.63,-0.31,0.74,-0.49,1.33,-0.56
47600,0.62,-0.3,0.74,0.21,0.84,-0.14
47620,0.62,-0.3,0.74,0.21,0.91,-0.14
47640,0.62,-0.31,0.74,0.35,0.35,-0.28
47660,0.62,-0.31,0.74,1.26,0.35,0.14
47680,0.62,-0.31,0.74,1.26,-0.07,-0.21
47700,0.61,-0.31,0.74,0.7,-1.47,-0.28
47720,0.61,-0.31,0.74,0.42,-2.31,0.14
47740,0.62,-0.31,0.75,0.7,-3.64,0.84
47760,0.62,-0.31,0.75,0.77,-3.92,1.05
47780,0.62,-0.3,0.74,0.7,-4.06,1.05
47800,0.62,-0.3,0.75,0.42,-4.2,1.05
47820,0.62,-0.3,0.74,-0.28,-3.5,-0.07
47840,0.63,-0.3,0.74,-0.7,-3.36,-0.63
47860,0.63,-0.31,0.74,-1.05,-2.73,-0.49
47880,0.63,-0.31,0.74,-0.77,-2.17,-0.56
47900,0.63,-0.31,0.74,0.0,-3.22,0.07
47920,0.63,-0.31,0.74,0.77,-3.01,0.63
47940,0.63,-0.31,0.74,0.63,-2.73,0.7
47960,0.63,-0.31,0.74,0.63,-2.31,0.42
47980,0.63,-0.3,0.74,0.42,-1.47,0.21
48000,0.63,-0.3,0.74,0.84,-1.26,0.35
48020,0.63,-0.3,0.74,0.42,-1.47,0.28
48040,0.63,-0.31,0.74,0.21,-1.89,0.07
48060,0.63,-0.31,0.74,0.42,-1.82,0.42
48080,0.63,-0.31,0.74,0.35,-1.68,0.63
48100,0.62,-0.31,0.74,0.49,-1.68,0.56
48120,0.63,-0.31,0.74,0.21,-1.96,0.42
48140,0.63,-0.3,0.74,0.35,-2.24,0.49
48160,0.63,-0.3,0.74,0.28,-1.75,0.77
48180,0.63,-0.31,0.74,0.0,-2.17,0.63
48200,0.63,-0.31,0.74,0.63,-1.33,-0.07
48220,0.63,-0.3,0.74,0.56,-1.68,0.07
48240,0.63,-0.31,0.73,0.7,-1.68,0.14
48260,0.63,-0.31,0.74,0.49,-1.96,0.49
48280,0.63,-0.31,0.74,0.56,-1.75,0.42
48300,0.63,-0.3,0.74,0.49,-1.05,0.7
48320,0.63,-0.31,0.74,0.56,-1.4,0.49
48340,0.63,-0.3,0.74,0.63,-1.4,0.42
48360,0.63,-0.31,0.74,0.28,-1.82,0.14
48380,0.63,-0.3,0.74,0.28,-1.4,0.35
48400,0.63,-0.3,0.74,0.07,-1.75,0.14
48420,0.63,-0.31,0.73,-0.21,-1.61,0.07
48440,0.63,-0.3,0.74,-0.28,-0.91,0.07
48460,0.63,-0.3,0.74,0.84,-0.07,0.35
48480,0.63,-0.3,0.74,0.42,-0.14,0.42
48500,0.63,-0.31,0.74,0.49,0.14,0.35
48520,0.63,-0.3,0.74,0.7,0.42,0.35
48540,0.63,-0.3,0.74,0.77,-0.42,0.35
48560,0.63,-0.3,0.74,0.7,-0.28,0.35
48580,0.63,-0.3,0.74,1.19,0.28,0.35
48600,0.63,-0.3,0.74,0.98,-0.14,0.14
48620,0.63,-0.3,0.74,0.49,0.28,0.14
48640,0.63,-0.31,0.74,0.56,0.49,0.07
48660,0.62,-0.3,0.74,0.0,0.49,-0.28
48680,0.63,-0.3,0.74,0.21,0.0,-0.21
48700,0.62,-0.31,0.74,0.77,-0.07,0.35
48720,0.63,-0.31,0.74,0.63,-0.35,0.21
48740,0.63,-0.3,0.74,1.26,-0.35,0.35
48760,0.62,-0.3,0.74,0.98,0.07,0.49
48780,0.63,-0.3,0.74,0.84,0.07,0.56
48800,0.62,-0.3,0.74,0.84,-0.35,0.63
48820,0.62,-0.31,0.74,0.56,0.0,0.49
48840,0.62,-0.3,0.74,1.05,-0.35,0.42
48860,0.62,-0.3,0.74,0.98,-0.49,0.56
48880,0.62,-0.3,0.75,0.56,-0.84,0.42
48900,0.62,-0.31,0.74,0.98,-0.49,0.49
48920,0.62,-0.3,0.75,0.7,-0.28,0.49
48940,0.62,-0.3,0.74,0.63,-0.63,0.42
48960,0.62,-0.3,0.74,0.77,-0.77,0.56
48980,0.62,-0.3,0.74,0.91,-1.05,0.56
49000,0.62,-0.31,0.74,0.91,-1.54,0.42
49020,0.62,-0.31,0.74,0.84,-2.17,0.49
49040,0.62,-0.31,0.75,1.26,-2.52,0.7
49060,0.62,-0.31,0.75,0.56,-2.45,0.42
49080,0.62,-0.3,0.74,0.28,-2.17,0.42
49100,0.62,-0.31,0.74,-0.14,-1.89,0.35
49120,0.63,-0.3,0.75,0.07,-1.75,0.28
49140,0.62,-0.31,0.74,-0.7,-2.03,0.21
49160,0.62,-0.31,0.74,-0.35,-2.1,-0.07
49180,0.62,-0.3,0.74,-0.49,-2.8,-0.07
49200,0.63,-0.3,0.74,-0.42,-2.8,0.28
49220,0.63,-0.31,0.74,-0.07,-3.15,0.21
49240,0.62,-0.3,0.74,-0.07,-2.73,0.0
49260,0.63,-0.3,0.74,-0.07,-2.45,0.07
49280,0.63,-0.3,0.74,-0.35,-2.45,0.07
49300,0.63,-0.3,0.74,-0.28,-2.1,-0.21
49320,0.63,-0.3,0.74,-0.35,-2.38,-0.14
49340,0.63,-0.3,0.74,-17.92,-2.03,-0.14
49360,0.63,-0.3,0.74,-0.14,-1.75,-0.07
49380,0.63,-0.3,0.74,-0.35,-1.61,-0.07
49400,0.63,-0.3,0.74,0.07,-1.54,0.07
49420,0.63,-0.3,0.74,-0.35,-1.68,-0.07
49440,0.63,-0.3,0.74,0.0,-1.4,0.14
49460,0.63,-0.31,0.74,-0.07,-1.12,0.28
49480,0.63,-0.31,0.74,-0.07,-0.98,0.0
49500,0.63,-0.3,0.74,0.21,-1.82,0.14
49520,0.63,-0.31,0.74,-17.85,-1.68,0.14
49540,0.63,-0.3,0.74,-0.14,-1.47,0.14
49560,0.63,-0.3,0.73,-0.07,-1.47,0.0
49580,0.63,-0.31,0.74,0.14,-1.75,0.14
49600,0.63,-0.3,0.74,0.28,-1.75,0.14
49620,0.63,-0.3,0.75,0.0,17.36,0.07
49640,0.64,-0.3,0.74,1.54,0.35,0.7
49660,0.63,-0.3,0.74,0.42,0.28,0.63
49680,0.63,-0.3,0.74,0.28,0.42,0.42
49700,0.63,-0.3,0.74,0.28,-0.28,-0.07
49720,0.63,-0.3,0.74,0.21,-0.07,17.85
49740,0.63,-0.3,0.74,0.7,-0.21,0.07
49760,0.63,-0.3,0.74,0.77,0.28,0.07
49780,0.63,-0.31,0.74,0.63,0.42,0.28
49800,0.63,-0.3,0.74,0.77,0.56,0.07
49820,0.63,-0.3,0.74,0.77,0.63,0.21
49840,0.62,-0.31,0.74,0.7,0.35,0.35
49860,0.62,-0.3,0.74,0.63,0.0,0.28
49880,0.62,-0.3,0.74,0.63,-0.14,0.14
49900,0.62,-0.31,0.75,0.7,-0.07,0.21
49920,0.62,-0.3,0.74,0.7,-0.07,0.28
49940,0.62,-0.3,0.74,1.26,-0.21,0.35
49960,0.62,-0.3,0.74,0.21,-0.21,0.14
49980,0.62,-0.3,0.75,0.56,0.07,0.42
50000,0.62,-0.3,0.74,0.56,-0.35,0.42
50020,0.62,-0.3,0.74,0.84,-0.49,0.42
50040,0.62,-0.3,0.75,1.19,-0.77,0.77
50060,0.62,-0.3,0.74,1.19,-1.19,0.77
50080,0.62,-0.31,0.74,0.91,-1.68,0.49
50100,0.62,-0.31,0.74,0.28,-2.17,0.35
50120,0.62,-0.31,0.74,0.35,-2.87,0.28
50140,0.62,-0.3,0.75,0.14,-3.78,0.14
50160,0.62,-0.31,0.74,0.0,-3.43,0.21
50180,0.62,-0.3,0.74,-0.49,-2.66,0.21
50200,0.62,-0.3,0.74,-0.35,-2.45,0.0
50220,0.62,-0.3,0.74,-1.05,-2.03,-0.07
50240,0.62,-0.3,0.74,-0.63,-2.66,-0.07
50260,0.63,-0.3,0.74,-0.49,-2.94,-17.92
50280,0.62,-0.31,0.74,-0.35,-4.13,0.07
50300,0.63,-0.3,0.73,0.0,-4.69,1.33
50320,0.62,-0.31,0.74,1.33,-6.16,3.01
50340,0.63,-0.3,0.74,2.1,-6.09,3.36
50360,0.63,-0.31,0.73,1.68,-6.79,3.43
50380,0.63,-0.29,0.74,1.33,-6.09,4.34
50400,0.63,-0.3,0.74,0.35,-5.18,4.48
50420,0.64,-0.3,0.73,-0.7,-4.62,3.57
50440,0.63,-0.31,0.73,-1.05,-5.53,3.5
50460,0.63,-0.3,0.74,-0.91,-5.32,3.92
50480,0.64,-0.3,0.74,-1.96,-5.04,3.85
50500,0.65,-0.29,0.73,-3.22,0.35,1.96
50520,0.63,-0.32,0.72,-2.1,-1.19,0.42
50540,0.62,-0.33,0.72,-0.21,-4.97,1.68
50560,0.63,-0.32,0.72,0.49,-4.83,2.17
50580,0.65,-0.32,0.73,-1.19,-3.57,2.17
50600,0.64,-0.31,0.72,-2.03,-4.27,3.01
50620,0.64,-0.31,0.73,-3.08,-1.89,2.1
50640,0.64,-0.32,0.72,-1.96,-0.91,0.49
50660,0.64,-0.32,0.72,-2.45,-1.12,-0.98
50680,0.65,-0.32,0.71,-2.8,0.28,-1.89
50700,0.64,-0.32,0.72,-1.4,0.91,-2.73
50720,0.64,-0.33,0.72,-1.33,1.19,-2.73
50740,0.64,-0.33,0.72,-1.82,1.54,-2.45
50760,0.64,-0.32,0.72,-1.19,1.54,-1.33
50780,0.64,-0.32,0.72,-0.28,1.96,-0.7
50800,0.64,-0.32,0.72,0.49,1.47,0.07
50820,0.63,-0.32,0.73,0.49,1.12,0.35
50840,0.63,-0.32,0.73,1.26,0.91,-0.42
50860,0.63,-0.32,0.73,0.7,1.26,-0.28
50880,0.63,-0.32,0.73,0.28,0.84,-0.14
50900,0.63,-0.32,0.73,0.35,0.56,-0.14
50920,0.63,-0.32,0.73,0.56,0.14,0.0
50940,0.63,-0.32,0.73,0.21,0.35,0.0
50960,0.63,-0.32,0.73,0.35,-0.07,0.35
50980,0.63,-0.32,0.73,0.21,0.0,0.56
51000,0.63,-0.32,0.73,0.7,-0.21,0.21
51020,0.63,-0.32,0.73,1.05,-0.7,0.63
51040,0.63,-0.32,0.73,1.05,-0.49,1.05
51060,0.63,-0.32,0.73,0.77,-0.84,0.77
51080,0.63,-0.32,0.73,0.42,-0.98,0.21
51100,0.63,-0.32,0.73,0.28,-2.17,0.28
51120,0.63,-0.32,0.73,0.21,-1.96,0.21
51140,0.63,-0.33,0.73,0.28,-2.66,-0.14
51160,0.63,-0.32,0.73,-0.35,-2.17,0.07
51180,0.63,-0.32,0.73,-0.42,-2.52,0.0
51200,0.63,-0.32,0.73,-1.12,-2.45,-0.21
51220,0.63,-0.32,0.73,-0.77,-2.52,-0.14
51240,0.63,-0.32,0.73,-0.91,-2.45,-0.14
51260,0.63,-0.32,0.73,-0.7,-2.17,0.0
51280,0.63,-0.32,0.73,-0.7,-2.45,0.21
51300,0.63,-0.32,0.73,-0.49,-2.59,0.21
51320,0.64,-0.32,0.72,-0.35,-2.24,-0.21
51340,0.64,-0.32,0.73,-0.28,-2.38,-0.21
51360,0.64,-0.32,0.73,-0.63,-2.1,0.35
51380,0.63,-0.32,0.73,-0.42,-1.75,0.63
51400,0.63,-0.32,0.73,-0.35,-1.47,0.49
51420,0.64,-0.32,0.73,-0.56,-2.17,0.0
51440,0.63,-0.33,0.73,0.14,-1.89,0.07
51460,0.63,-0.32,0.72,0.28,-1.75,0.49
51480,0.64,-0.32,0.73,-0.42,-1.75,0.35
51500,0.63,-0.32,0.73,0.0,-2.03,0.7
51520,0.64,-0.32,0.72,-0.14,-2.1,0.42
51540,0.64,-0.32,0.72,0.14,-2.03,0.07
51560,0.64,-0.33,0.72,0.14,-1.96,-0.42
51580,0.64,-0.31,0.73,1.26,0.63,-0.28
51600,0.64,-0.32,0.72,0.84,1.19,-0.63
51620,0.64,-0.32,0.72,0.0,1.75,-0.63
51640,0.64,-0.32,0.72,0.21,2.24,-1.61
51660,0.64,-0.32,0.73,0.07,2.17,-2.31
51680,0.64,-0.32,0.73,0.14,2.52,-1.33
51700,0.64,-0.31,0.73,0.49,2.87,-1.68
51720,0.64,-0.32,0.73,0.77,3.15,-1.75
51740,0.63,-0.32,0.73,2.03,3.08,-1.54
51760,0.63,-0.32,0.73,1.61,3.92,-1.54
51780,0.63,-0.31,0.74,1.33,4.41,-1.61
51800,0.62,-0.32,0.73,1.33,4.06,-1.89
51820,0.63,-0.32,0.73,1.12,3.99,-2.17
51840,0.63,-0.32,0.74,0.91,3.71,-2.24
51860,0.62,-0.32,0.74,0.56,3.92,-2.17
51880,0.62,-0.32,0.74,0.63,3.08,-1.89
51900,0.61,-0.31,0.74,0.98,2.45,-1.47
51920,0.61,-0.32,0.74,1.26,1.12,-0.84
51940,0.62,-0.31,0.74,2.24,0.42,-0.56
51960,0.62,-0.31,0.75,2.73,-0.21,-0.07
51980,0.62,-0.31,0.74,2.31,0.63,0.21
52000,0.6,-0.32,0.74,2.94,-1.26,0.77
52020,0.6,-0.32,0.74,3.71,-3.99,1.33
52040,0.61,-0.31,0.75,3.99,-5.39,1.96
52060,0.61,-0.31,0.75,4.06,-6.3,2.38
52080,0.61,-0.31,0.75,2.73,-6.72,2.1
52100,0.61,-0.31,0.74,1.4,-7.42,1.47
52120,0.63,-0.31,0.75,0.98,-5.95,1.12
52140,0.63,-0.3,0.74,0.56,-4.9,1.4
52160,0.62,-0.3,0.74,-0.28,-4.97,0.77
52180,0.63,-0.31,0.74,0.0,-4.9,0.49
52200,0.63,-0.3,0.74,0.0,-3.71,0.84
52220,0.63,-0.31,0.73,0.42,-3.85,0.77
52240,0.64,-0.31,0.73,0.28,-3.29,0.91
52260,0.63,-0.3,0.75,-0.56,-2.94,0.91
52280,0.65,-0.29,0.74,1.4,0.28,1.19
52300,0.63,-0.31,0.73,0.0,0.56,1.05
52320,0.63,-0.31,0.73,0.21,0.98,0.42
52340,0.63,-0.31,0.73,0.35,0.14,-0.14
52360,0.63,-0.3,0.74,0.35,17.64,0.07
52380,0.63,-0.3,0.73,0.63,0.56,0.28
52400,0.63,-0.31,0.73,0.91,0.91,-0.07
52420,0.63,-0.31,0.73,1.05,0.63,-0.14
52440,0.63,-0.31,0.74,0.84,1.19,0.07
52460,0.63,-0.31,0.74,-0.07,1.4,-17.92
52480,0.62,-0.31,0.74,-0.21,0.77,-0.42
52500,0.62,-0.31,0.74,0.14,0.28,-0.21
52520,0.62,-0.31,0.74,0.35,0.0,0.21
52540,0.62,-0.31,0.74,0.98,-0.56,0.28
52560,0.62,-0.31,0.74,1.26,-0.28,0.63
52580,0.62,-0.31,0.74,0.98,-0.56,0.49
52600,0.62,-0.31,0.74,1.12,-1.33,0.49
52620,0.62,-0.31,0.74,0.77,-1.89,0.28
52640,0.62,-0.31,0.74,0.28,-2.87,-0.14
52660,0.62,-0.31,0.74,-0.7,-3.43,-0.63
52680,0.62,-0.31,0.74,-0.98,-3.15,-0.49
52700,0.63,-0.31,0.74,-0.91,-3.01,-0.35
52720,0.63,-0.3,0.74,-0.28,-2.59,-0.77
52740,0.63,-0.3,0.74,-0.49,-1.4,-1.4
52760,0.63,-0.31,0.73,-0.42,-2.31,-1.47
52780,0.63,-0.31,0.74,-0.28,-1.61,-1.4
52800,0.63,-0.31,0.74,0.21,-2.17,-1.4
52820,0.63,-0.31,0.74,0.14,-1.54,-1.61
52840,0.63,-0.31,0.73,0.14,-2.1,-1.12
52860,0.64,-0.3,0.74,-0.35,0.0,-1.26
52880,0.63,-0.3,0.73,0.42,0.21,-1.33
52900,0.63,-0.3,0.73,0.56,-0.84,-0.7
52920,0.63,-0.3,0.73,1.05,-1.26,-0.28
52940,0.63,-0.3,0.74,0.7,-1.96,-0.07
52960,0.63,-0.3,0.74,3.43,-1.12,0.28
52980,0.63,-0.31,0.74,3.43,-1.4,-0.28
53000,0.62,-0.3,0.73,3.36,-0.28,0.14
53020,0.62,-0.3,0.74,2.52,-0.77,0.42
53040,0.63,-0.3,0.74,2.03,-1.47,0.35
53060,0.63,-0.29,0.74,1.4,-1.05,0.77
53080,0.63,-0.3,0.74,1.54,-1.47,1.33
53100,0.62,-0.3,0.74,1.61,-1.96,1.61
53120,0.63,-0.29,0.74,1.89,-1.4,1.96
53140,0.63,-0.3,0.74,1.61,-1.19,1.61
53160,0.63,-0.3,0.74,1.12,-0.91,1.12
53180,0.62,-0.3,0.74,1.12,-1.4,1.12
53200,0.63,-0.3,0.74,0.91,-1.12,1.26
53220,0.62,-0.3,0.74,1.33,-1.54,1.33
53240,0.63,-0.29,0.74,1.54,-1.26,1.96
53260,0.63,-0.3,0.74,1.26,-0.91,1.4
53280,0.62,-0.3,0.73,1.33,-0.49,1.4
53300,0.62,-0.3,0.74,1.4,-1.82,1.26
53320,0.63,-0.3,0.74,0.91,-1.96,1.12
53340,0.63,-0.3,0.74,0.35,-3.15,0.42
53360,0.63,-0.3,0.74,-0.56,-3.43,0.0
53380,0.63,-0.3,0.74,-0.63,-2.8,-0.28
53400,0.63,-0.3,0.74,-0.7,-3.08,-0.42
53420,0.63,-0.3,0.74,-0.77,-3.29,-0.49
53440,0.63,-0.3,0.74,-0.84,-3.01,-0.28
53460,0.63,-0.3,0.74,-0.42,-3.01,0.0
53480,0.63,-0.3,0.74,-0.21,-2.45,0.28
53500,0.64,-0.3,0.74,0.0,-2.1,0.28
53520,0.63,-0.3,0.73,0.21,-2.52,0.07
53540,0.63,-0.3,0.73,0.28,-2.59,-0.07
53560,0.64,-0.3,0.74,-0.63,-1.96,0.14
53580,0.63,-0.3,0.74,-0.28,-1.4,0.0
53600,0.63,-0.29,0.75,0.42,-0.49,-0.14
53620,0.64,-0.29,0.73,1.47,-0.07,0.77
53640,0.63,-0.3,0.73,0.56,-0.21,0.7
53660,0.63,-0.3,0.73,0.42,-0.07,0.77
53680,0.63,-0.3,0.73,0.77,-0.42,0.63
53700,0.63,-0.3,0.74,0.84,-1.05,0.77
53720,0.63,-0.3,0.74,1.33,-0.91,0.77
53740,0.63,-0.3,0.73,1.47,-0.91,0.42
53760,0.63,-0.3,0.73,1.33,-1.19,0.77
53780,0.64,-0.3,0.74,0.84,-0.77,0.7
53800,0.64,-0.3,0.74,0.63,-0.42,0.63
53820,0.63,-0.3,0.74,0.56,-0.28,0.49
53840,0.63,-0.3,0.74,1.12,-0.35,0.56
53860,0.63,-0.3,0.74,0.63,-0.98,0.42
53880,0.63,-0.3,0.74,0.42,-0.49,0.42
53900,0.63,-0.3,0.74,1.19,-0.7,0.35
53920,0.63,-0.3,0.74,1.19,-0.7,0.42
53940,0.63,-0.3,0.74,1.19,-0.56,0.63
53960,0.63,-0.3,0.73,0.77,-0.49,0.56
53980,0.62,-0.3,0.74,0.63,-1.47,0.35
54000,0.63,-0.3,0.74,0.21,-2.24,0.21
54020,0.63,-0.3,0.74,-0.21,-2.66,0.0
54040,0.63,-0.3,0.74,-0.21,-2.87,-0.07
54060,0.63,-0.3,0.74,-0.14,-3.22,0.14
54080,0.63,-0.3,0.74,-0.35,-2.8,0.21
54100,0.63,-0.3,0.74,-0.56,-2.24,0.07
54120,0.63,-0.3,0.74,-0.7,-2.45,0.14
54140,0.63,-0.3,0.73,-0.84,-2.45,0.07
54160,0.63,-0.3,0.73,-0.35,-2.66,-0.07
54180,0.64,-0.29,0.74,-0.28,-2.73,0.0
54200,0.64,-0.3,0.74,-0.35,-2.24,0.21
54220,0.64,-0.3,0.74,-0.14,-1.54,0.14
54240,0.63,-0.3,0.73,-0.07,-1.68,-0.07
54260,0.64,-0.3,0.73,0.0,-1.89,0.21
54280,0.64,-0.3,0.74,0.0,-1.54,0.35
54300,0.64,-0.3,0.73,-0.35,-1.47,0.35
54320,0.64,-0.3,0.73,0.0,-1.82,0.35
54340,0.64,-0.3,0.73,0.35,-2.17,0.49
54360,0.63,-0.3,0.75,0.14,-2.24,0.7
54380,0.64,-0.3,0.73,2.59,-1.33,2.31
54400,0.63,-0.3,0.73,2.87,-3.5,3.22
54420,0.63,-0.3,0.73,3.36,-4.76,4.41
54440,0.63,-0.3,0.74,4.34,-4.9,4.48
54460,0.63,-0.3,0.75,3.15,-5.53,5.04
54480,0.64,-0.28,0.74,-0.56,-3.71,4.83
54500,0.65,-0.28,0.74,-1.61,-0.28,2.87
54520,0.64,-0.29,0.73,-1.05,-1.47,2.66
54540,0.63,-0.31,0.72,-2.52,-0.63,2.03
54560,0.65,-0.31,0.73,-2.87,-0.49,2.45
54580,0.64,-0.3,0.73,-2.66,-0.49,1.82
54600,0.64,-0.3,0.73,-2.8,0.56,1.47
54620,0.64,-0.31,0.72,-4.55,0.63,0.63
54640,0.64,-0.32,0.73,-5.95,0.42,-0.49
54660,0.63,-0.31,0.73,-5.04,0.63,-1.89
54680,0.64,-0.32,0.72,-3.85,0.91,-2.52
54700,0.63,-0.32,0.72,-1.96,0.35,-2.52
54720,0.64,-0.33,0.72,-0.84,-0.35,-2.73
54740,0.63,-0.33,0.72,-0.77,-0.35,-3.22
54760,0.63,-0.33,0.72,-1.19,-1.82,-2.03
54780,0.63,-0.32,0.73,-0.21,-3.01,-0.91
54800,0.63,-0.32,0.72,0.21,-3.57,0.35
54820,0.63,-0.31,0.74,1.19,-5.81,2.31
54840,0.64,-0.31,0.74,-1.19,-5.88,3.36
54860,0.64,-0.31,0.73,-1.54,-5.11,2.59
54880,0.62,-0.31,0.73,-1.47,-6.58,2.52
54900,0.64,-0.31,0.73,-2.87,-5.53,1.89
54920,0.65,-0.31,0.73,-2.73,-4.76,0.63
54940,0.64,-0.31,0.72,-2.45,-4.48,-0.35
54960,0.65,-0.32,0.72,-2.66,-3.64,-0.91
54980,0.65,-0.32,0.71,-3.01,-2.52,-1.12
55000,0.65,-0.33,0.72,-2.03,-1.82,-0.63
55020,0.65,-0.33,0.72,-1.54,-0.98,-0.42
55040,0.65,-0.33,0.71,-1.33,-1.33,0.07
55060,0.65,-0.33,0.71,-0.35,-2.17,1.12
55080,0.65,-0.33,0.72,-0.35,-0.84,1.26
55100,0.65,-0.32,0.72,-0.14,-0.91,1.12
55120,0.65,-0.32,0.72,-0.49,-0.84,0.77
55140,0.65,-0.32,0.72,-0.07,-0.91,0.77
55160,0.64,-0.33,0.72,-0.63,-0.56,0.21
55180,0.64,-0.33,0.72,-0.84,-0.42,0.0
55200,0.64,-0.33,0.72,-0.35,-1.05,0.63
55220,0.64,-0.33,0.72,-0.42,-1.4,0.35
55240,0.64,-0.33,0.72,0.07,-1.4,0.56
55260,0.64,-0.33,0.72,-0.14,-1.54,0.21
55280,0.64,-0.33,0.72,0.07,-2.03,0.56
55300,0.64,-0.33,0.72,-0.07,-1.89,0.28
55320,0.65,-0.33,0.72,0.07,-1.68,0.0
55340,0.65,-0.32,0.71,-0.28,-1.68,-0.07
55360,0.65,-0.32,0.72,-0.35,-1.89,0.0
55380,0.65,-0.32,0.72,0.07,0.14,0.14
55400,0.65,-0.32,0.71,0.0,0.56,0.21
55420,0.65,-0.33,0.71,0.28,0.0,0.28
55440,0.65,-0.32,0.72,0.0,0.56,-0.35
55460,0.65,-0.32,0.72,0.28,1.19,-0.28
55480,0.64,-0.33,0.72,-0.07,1.26,0.07
55500,0.64,-0.33,0.72,0.21,0.98,-0.42
55520,0.64,-0.32,0.72,-0.21,0.98,-0.7
55540,0.64,-0.33,0.72,0.21,0.84,-0.28
55560,0.64,-0.33,0.72,0.28,0.91,-0.35
55580,0.64,-0.32,0.72,0.07,1.19,-0.49
55600,0.64,-0.33,0.72,-0.35,1.12,-0.28
55620,0.64,-0.32,0.72,-0.14,1.19,-0.35
55640,0.64,-0.33,0.72,0.14,0.77,-0.35
55660,0.64,-0.33,0.72,0.21,0.28,-0.28
55680,0.64,-0.32,0.73,-0.14,0.7,0.07
55700,0.63,-0.33,0.73,0.07,0.35,0.35
55720,0.64,-0.32,0.72,-0.21,0.49,0.14
55740,0.64,-0.33,0.72,0.07,0.14,-0.28
55760,0.63,-0.32,0.72,0.07,0.35,0.07
55780,0.64,-0.32,0.73,0.21,0.42,0.35
55800,0.63,-0.33,0.72,0.77,0.28,0.56
55820,0.63,-0.33,0.72,1.47,-1.54,0.91
55840,0.63,-0.33,0.72,1.12,-2.45,0.7
55860,0.64,-0.32,0.72,0.7,-2.59,0.7
55880,0.64,-0.33,0.73,0.49,-3.08,0.77
55900,0.63,-0.32,0.73,0.14,-2.52,0.49
55920,0.63,-0.32,0.72,-0.49,-2.59,0.14
55940,0.64,-0.32,0.72,-0.49,-2.31,0.28
55960,0.63,-0.33,0.72,-0.49,-3.01,0.35
55980,0.64,-0.33,0.72,-0.49,-3.43,0.21
56000,0.64,-0.32,0.72,-0.21,-3.08,0.49
56020,0.64,-0.32,0.72,-0.35,-2.87,0.63
56040,0.64,-0.33,0.72,0.07,-2.31,0.56
56060,0.64,-0.33,0.72,-0.28,-2.31,0.56
56080,0.64,-0.32,0.72,0.0,-2.31,0.35
56100,0.64,-0.33,0.72,0.0,-2.45,0.63
56120,0.64,-0.33,0.72,0.35,-2.03,0.28
56140,0.64,-0.32,0.72,0.07,-1.54,0.07
56160,0.64,-0.33,0.72,0.07,-2.17,0.35
56180,0.64,-0.33,0.72,-0.07,-1.75,0.28
56200,0.64,-0.33,0.72,-0.35,-1.19,-0.07
56220,0.64,-0.33,0.72,-0.42,-1.19,-0.07
56240,0.64,-0.33,0.72,-0.14,-1.61,-0.14
56260,0.64,-0.33,0.72,-0.49,-1.05,-0.21
56280,0.64,-0.33,0.72,-0.35,-1.26,-0.07
56300,0.64,-0.33,0.72,-0.21,-1.33,-0.21
56320,0.64,-0.33,0.72,0.14,-1.75,0.28
56340,0.64,-0.33,0.72,0.14,-1.61,0.28
56360,0.64,-0.33,0.72,0.14,-1.68,0.35
56380,0.64,-0.33,0.72,-0.21,-1.4,0.14
56400,0.64,-0.33,0.72,0.21,-1.12,0.56
56420,0.64,-0.33,0.72,0.0,-1.68,0.56
56440,0.64,-0.33,0.72,-0.14,-1.33,0.07
56460,0.64,-0.33,0.72,0.42,-2.31,0.49
56480,0.65,-0.33,0.72,0.28,-1.47,0.7
56500,0.64,-0.33,0.72,0.84,-2.17,0.7
56520,0.64,-0.33,0.72,0.35,-1.96,0.49
56540,0.64,-0.33,0.72,0.35,-1.89,0.42
56560,0.64,-0.33,0.72,0.35,-1.82,0.42
56580,0.64,-0.33,0.72,0.14,-1.61,0.28
56600,0.64,-0.32,0.72,0.98,-0.91,0.63
56620,0.65,-0.32,0.72,0.63,-0.28,0.56
56640,0.64,-0.33,0.71,0.35,-0.21,0.35
56660,0.64,-0.33,0.72,0.49,0.21,0.14
56680,0.64,-0.33,0.72,0.56,0.7,-0.07
56700,0.64,-0.33,0.72,0.42,0.28,-0.07
56720,0.64,-0.33,0.72,0.35,0.49,0.28
56740,0.64,-0.33,0.72,0.49,0.63,-0.28
56760,0.64,-0.33,0.72,0.63,0.49,-0.14
56780,0.64,-0.33,0.72,0.35,0.42,0.14
56800,0.64,-0.33,0.72,0.42,0.63,0.35
56820,0.64,-0.33,0.72,0.63,1.05,-0.07
56840,0.64,-0.33,0.72,0.35,0.77,-0.21
56860,0.64,-0.33,0.72,0.77,0.14,0.28
56880,0.64,-0.32,0.73,0.21,0.21,0.0
56900,0.63,-0.33,0.72,0.63,-0.14,0.21
56920,0.64,-0.32,0.72,0.35,-0.14,0.14
56940,0.64,-0.33,0.73,0.63,-0.14,0.07
56960,0.64,-0.33,0.72,0.35,-0.35,0.14
56980,0.64,-0.33,0.72,0.63,0.07,0.42
57000,0.63,-0.32,0.72,0.49,-0.63,0.28
57020,0.63,-0.33,0.73,0.63,-0.84,0.42
57040,0.64,-0.33,0.73,0.35,-0.49,0.56
57060,0.64,-0.33,0.72,1.19,-0.42,0.77
57080,0.63,-0.33,0.72,1.47,-1.26,1.05
57100,0.63,-0.33,0.72,0.84,-1.54,0.91
57120,0.64,-0.33,0.72,0.35,-1.68,0.49
57140,0.63,-0.33,0.72,0.42,-2.94,0.07
57160,0.63,-0.33,0.72,0.91,-3.99,0.28
57180,0.64,-0.33,0.72,0.21,-3.15,-0.07
57200,0.64,-0.33,0.72,-0.56,-3.29,0.42
57220,0.64,-0.33,0.72,-0.98,-3.36,0.14
57240,0.64,-0.33,0.72,-0.35,-3.15,0.21
57260,0.64,-0.33,0.72,0.49,-3.29,0.7
57280,0.64,-0.33,0.72,0.28,-2.45,0.56
57300,0.64,-0.32,0.72,0.0,-2.8,0.28
57320,0.64,-0.32,0.72,-0.07,-3.43,0.28
57340,0.64,-0.32,0.72,0.42,-3.01,0.42
57360,0.64,-0.33,0.72,0.0,-3.01,0.35
57380,0.64,-0.33,0.72,-0.21,-2.17,0.0
57400,0.64,-0.32,0.72,0.0,-2.17,0.14
57420,0.64,-0.33,0.72,0.35,-2.1,0.63
57440,0.64,-0.33,0.72,0.77,-2.24,0.56
57460,0.64,-0.32,0.72,0.14,-2.1,0.21
57480,0.64,-0.33,0.72,-0.07,-1.4,0.42
57500,0.64,-0.33,0.72,0.21,-1.96,0.35
57520,0.64,-0.33,0.72,0.07,-1.89,0.07
57540,0.65,-0.33,0.72,0.0,-1.82,-0.07
57560,0.65,-0.33,0.72,0.35,-1.47,0.42
57580,0.66,-0.32,0.71,0.63,0.42,0.35
57600,0.64,-0.33,0.72,0.21,-1.82,0.21
57620,0.64,-0.33,0.71,0.21,-1.75,0.21
57640,0.64,-0.33,0.72,0.21,-1.75,0.42
57660,0.64,-0.33,0.71,0.56,-1.47,0.63
57680,0.65,-0.33,0.73,1.61,-1.12,-0.56
57700,0.64,-0.32,0.72,0.14,-1.61,0.28
57720,0.64,-0.33,0.72,0.35,-2.17,0.35
57740,0.65,-0.33,0.72,0.7,-2.03,0.42
57760,0.65,-0.33,0.71,0.56,-1.82,0.42
57780,0.64,-0.33,0.71,0.07,-1.4,0.14
57800,0.65,-0.33,0.71,0.42,-1.75,0.35
57820,0.65,-0.33,0.71,0.14,-1.82,0.42
57840,0.65,-0.33,0.71,0.21,-1.96,0.35
57860,0.65,-0.32,0.72,1.19,-1.19,0.56
57880,0.65,-0.32,0.71,0.84,-0.42,0.56
57900,0.65,-0.33,0.71,0.28,-0.14,0.42
57920,0.65,-0.33,0.71,0.49,0.14,0.0
57940,0.64,-0.33,0.71,0.14,0.14,-0.35
57960,0.65,-0.32,0.71,0.28,-0.21,-0.14
57980,0.65,-0.32,0.72,0.56,0.21,0.28
58000,0.64,-0.33,0.72,0.35,0.56,0.0
58020,0.64,-0.33,0.72,0.84,0.84,-0.21
58040,0.64,-0.33,0.71,0.49,0.14,-0.07
58060,0.64,-0.33,0.72,0.63,0.56,0.14
58080,0.64,-0.33,0.72,0.7,0.77,0.14
58100,0.64,-0.32,0.72,1.05,0.42,0.07
58120,0.64,-0.33,0.72,0.56,0.49,0.07
58140,0.64,-0.33,0.72,0.7,0.42,0.14
58160,0.64,-0.33,0.72,0.56,0.49,-0.21
58180,0.64,-0.32,0.72,0.35,0.07,0.0
58200,0.64,-0.33,0.72,0.56,17.85,-0.07
58220,0.64,-0.33,0.72,0.56,0.07,-0.07
58240,0.62,-0.33,0.71,0.7,0.21,0.07
58260,0.64,-0.32,0.72,1.19,-0.35,0.49
58280,0.64,-0.32,0.72,0.63,-0.28,0.35
58300,0.64,-0.32,0.72,0.21,-0.07,0.42
58320,0.63,-0.33,0.72,0.35,-0.42,0.49
58340,0.64,-0.32,0.72,1.19,-0.35,0.63
58360,0.64,-0.32,0.72,0.84,-0.63,1.19
58380,0.63,-0.33,0.72,0.77,-1.05,1.47
58400,0.63,-0.33,0.72,0.7,-2.17,1.26
58420,0.63,-0.33,0.72,0.91,-2.31,1.19
58440,0.63,-0.33,0.72,0.35,-3.08,1.26
58460,0.63,-0.33,0.72,-0.28,-3.15,0.84
58480,0.64,-0.33,0.72,-0.63,-3.64,0.21
58500,0.64,-0.33,0.72,-0.56,-3.22,0.28
58520,0.64,-0.33,0.72,-0.42,-2.87,0.56
58540,0.64,-0.33,0.72,-0.77,-2.17,0.14
58560,0.64,-0.33,0.72,-0.35,-2.73,0.14
58580,0.64,-0.33,0.72,0.07,-2.1,0.07
58600,0.64,-0.33,0.71,0.42,-2.52,0.21
58620,0.65,-0.33,0.71,0.35,-2.45,0.42
58640,0.64,-0.33,0.72,0.49,-2.45,0.63
58660,0.64,-0.33,0.72,0.49,-2.45,0.49
58680,0.64,-0.32,0.72,0.35,-2.52,0.35
58700,0.64,-0.33,0.72,0.42,-2.87,0.56
58720,0.65,-0.33,0.72,0.21,-2.38,0.42
58740,0.64,-0.33,0.71,0.21,-2.45,0.21
58760,0.64,-0.33,0.72,-0.07,-2.1,0.14
58780,0.64,-0.33,0.72,0.35,-2.24,0.56
58800,0.64,-0.33,0.72,-0.14,-2.1,0.14
58820,0.64,-0.33,0.71,-0.14,-2.24,0.0
58840,0.64,-0.33,0.71,0.35,-2.59,0.21
58860,0.64,-0.33,0.71,-0.14,-1.96,0.07
58880,0.65,-0.33,0.71,-0.42,-1.54,0.21
58900,0.65,-0.33,0.71,-0.21,-1.19,0.07
58920,0.65,-0.33,0.71,0.28,-1.75,0.14
58940,0.65,-0.33,0.71,0.07,-1.82,0.21
58960,0.65,-0.33,0.71,-0.07,-1.68,0.28
58980,0.65,-0.33,0.71,0.21,-1.12,0.14
59000,0.64,-0.33,0.71,0.14,-1.54,0.14
59020,0.65,-0.33,0.71,0.42,-1.61,0.63
59040,0.64,-0.33,0.71,0.21,-1.05,0.49
59060,0.64,-0.33,0.71,0.42,-1.47,0.28
59080,0.64,-0.33,0.71,0.14,-1.54,0.42
59100,0.65,-0.33,0.71,0.21,-1.4,0.21
59120,0.65,-0.33,0.71,0.07,-1.4,0.21
59140,0.65,-0.33,0.71,0.07,-1.61,-0.14
59160,0.65,-0.33,0.71,0.14,-1.61,0.0
59180,0.65,-0.33,0.71,0.42,-1.89,0.35
59200,0.65,-0.33,0.71,0.07,-1.54,0.07
59220,0.65,-0.33,0.71,0.21,-1.61,0.14
59240,0.65,-0.33,0.71,0.28,-1.61,0.28
59260,0.65,-0.32,0.72,1.12,-0.56,0.49
59280,0.65,-0.33,0.71,0.42,-0.14,0.7
59300,0.65,-0.33,0.71,0.35,0.0,0.49
59320,0.64,-0.32,0.71,0.42,-0.21,0.0
59340,0.65,-0.33,0.71,0.56,-0.63,0.14
59360,0.65,-0.33,0.72,0.77,-0.21,0.21
59380,0.64,-0.33,0.71,0.84,-0.35,0.14
59400,0.65,-0.33,0.71,0.63,-0.14,0.28
59420,0.64,-0.33,0.71,0.63,-0.14,0.42
59440,0.64,-0.33,0.71,0.49,-0.14,0.14
59460,0.64,-0.33,0.71,0.42,0.0,0.14
59480,0.64,-0.33,0.71,0.7,0.0,0.42
59500,0.64,-0.33,0.72,0.84,-0.07,0.35
59520,0.65,-0.32,0.73,2.03,0.77,-1.4
59540,0.64,-0.33,0.72,0.49,0.28,0.35
59560,0.64,-0.33,0.72,0.28,0.07,0.14
59580,0.64,-0.32,0.72,0.35,0.28,-0.07
59600,0.64,-0.33,0.71,0.21,0.14,0.14
59620,0.64,-0.33,0.72,0.56,0.07,0.14
59640,0.64,-0.33,0.72,0.49,0.63,0.0
59660,0.64,-0.32,0.72,0.42,-0.28,0.35
59680,0.64,-0.33,0.72,0.63,-0.21,0.56
59700,0.64,-0.32,0.72,0.7,-0.07,0.28
59720,0.64,-0.33,0.72,0.77,-0.14,0.14
59740,0.64,-0.32,0.72,0.42,0.07,0.42
59760,0.64,-0.32,0.72,0.56,-0.21,0.28
59780,0.64,-0.33,0.72,0.7,-0.42,0.42
59800,0.63,-0.33,0.72,1.19,-0.77,0.7
59820,0.63,-0.33,0.72,1.26,-1.33,0.77
59840,0.63,-0.33,0.72,0.98,-2.17,0.42
59860,0.64,-0.33,0.72,0.56,-2.38,0.35
59880,0.64,-0.33,0.72,0.35,-2.31,0.49
59900,0.64,-0.33,0.72,0.07,-2.87,0.49
59920,0.64,-0.33,0.72,-0.28,-2.59,0.28
59940,0.64,-0.33,0.72,-0.28,-2.52,0.35
59960,0.64,-0.33,0.71,-0.49,-2.38,0.07
59980,0.64,-0.33,0.72,-0.35,-3.15,0.21
60000,0.64,-0.33,0.72,-0.21,-3.29,0.35
60020,0.64,-0.32,0.72,-0.07,-2.73,0.14
60040,0.64,-0.32,0.72,0.07,-2.59,0.14
60060,0.64,-0.33,0.72,-0.42,-2.17,0.42
60080,0.64,-0.32,0.72,-0.14,-1.96,1.12
60100,0.65,-0.33,0.72,-0.42,-2.38,0.07
60120,0.65,-0.32,0.71,-0.21,-2.17,0.0
60140,0.64,-0.33,0.71,0.42,-2.59,0.49
60160,0.65,-0.33,0.72,-0.28,-2.31,0.21
60180,0.64,-0.33,0.71,-0.14,-2.1,0.35
60200,0.65,-0.33,0.71,-0.28,-1.96,0.14
60220,0.65,-0.32,0.71,-0.21,-1.75,0.14
60240,0.65,-0.33,0.72,-0.49,-1.61,0.28
60260,0.64,-0.33,0.71,-0.21,-1.89,0.14
60280,0.65,-0.33,0.71,-0.14,-1.47,-0.07
60300,0.64,-0.33,0.71,-0.07,-2.31,0.35
60320,0.65,-0.33,0.71,0.14,-1.89,0.42
60340,0.65,-0.33,0.71,0.0,-1.47,0.35
60360,0.65,-0.33,0.71,0.07,-1.96,0.28
60380,0.65,-0.33,0.71,-0.28,-1.75,0.35
60400,0.64,-0.33,0.71,0.07,-1.82,0.28
60420,0.65,-0.33,0.71,0.07,-1.75,0.28
60440,0.65,-0.33,0.71,0.63,-1.75,0.49
60460,0.65,-0.32,0.71,0.14,-1.4,0.35
60480,0.65,-0.33,0.71,0.35,-1.19,0.35
60500,0.65,-0.33,0.71,0.07,-1.4,0.35
60520,0.65,-0.33,0.71,-0.14,-1.12,0.21
60540,0.65,-0.33,0.71,0.0,-1.12,0.07
60560,0.65,-0.33,0.71,0.07,-1.05,0.21
60580,0.65,-0.33,0.71,0.42,-1.05,-0.07
60600,0.65,-0.33,0.71,0.21,-0.7,-0.42
60620,0.65,-0.33,0.71,0.63,-0.63,-0.42
60640,0.65,-0.33,0.71,0.56,-0.7,-0.49
60660,0.65,-0.33,0.71,0.42,0.07,-1.19
60680,0.65,-0.33,0.71,0.56,-0.28,-0.49
60700,0.64,-0.32,0.72,0.91,-0.14,0.0
60720,0.65,-0.32,0.71,1.19,0.07,-0.14
60740,0.65,-0.33,0.71,0.49,-0.07,-0.07
60760,0.65,-0.32,0.71,0.98,-0.21,0.0
60780,0.64,-0.32,0.72,0.77,0.35,0.14
60800,0.64,-0.32,0.72,0.63,1.05,-0.77
60820,0.65,-0.33,0.71,-0.21,1.89,-1.61
60840,0.64,-0.32,0.71,0.49,1.4,-0.28
60860,0.64,-0.32,0.71,1.19,0.49,-0.49
60880,0.65,-0.33,0.72,1.05,0.84,-0.28
60900,0.64,-0.33,0.71,0.77,0.7,0.35
60920,0.64,-0.32,0.71,1.12,0.56,0.42
60940,0.64,-0.32,0.72,1.61,0.14,0.49
60960,0.64,-0.32,0.72,1.4,-0.28,0.91
60980,0.64,-0.32,0.72,1.19,0.0,0.63
61000,0.64,-0.32,0.72,0.91,-0.42,0.49
61020,0.64,-0.32,0.72,1.33,-0.14,0.56
61040,0.64,-0.32,0.72,1.4,-0.42,0.49
61060,0.64,-0.32,0.72,0.49,0.28,0.07
61080,0.64,-0.32,0.72,0.49,-0.14,0.0
61100,0.64,-0.32,0.72,0.35,-0.14,0.14
61120,0.64,-0.33,0.72,0.35,-0.07,0.07
61140,0.64,-0.33,0.72,0.63,0.14,0.28
61160,0.64,-0.32,0.72,0.7,0.0,0.35
61180,0.64,-0.32,0.72,0.56,-0.42,0.56
61200,0.64,-0.32,0.72,0.56,-0.14,0.84
61220,0.63,-0.33,0.72,0.91,-0.7,0.7
61240,0.63,-0.32,0.72,0.77,-0.49,0.77
61260,0.63,-0.32,0.73,0.63,-1.05,0.28
61280,0.63,-0.33,0.72,0.35,-1.26,-0.21
61300,0.63,-0.32,0.72,0.7,-1.89,0.28
61320,0.63,-0.32,0.73,0.35,-1.68,0.0
61340,0.63,-0.33,0.73,0.21,-1.4,0.07
61360,0.64,-0.32,0.73,-0.14,-2.03,0.07
61380,0.63,-0.32,0.72,-0.7,-1.89,0.0
61400,0.63,-0.32,0.72,-0.42,-2.45,-0.21
61420,0.64,-0.32,0.73,-0.77,-2.17,-0.35
61440,0.64,-0.32,0.72,-0.63,-2.52,-0.49
61460,0.64,-0.32,0.72,-0.56,-1.89,-0.28
61480,0.64,-0.32,0.72,-0.14,-2.24,-0.28
61500,0.64,-0.32,0.72,-0.14,-2.45,-0.07
61520,0.64,-0.32,0.72,-0.49,-1.89,0.21
61540,0.64,-0.33,0.72,0.28,-2.45,0.14
61560,0.64,-0.32,0.72,0.0,-2.1,0.07
61580,0.64,-0.32,0.72,0.0,-2.59,0.14
61600,0.64,-0.33,0.72,0.49,-2.52,0.49
61620,0.64,-0.32,0.72,0.14,-2.38,0.14
61640,0.64,-0.32,0.72,-0.14,-2.38,0.21
61660,0.64,-0.32,0.72,-0.21,-2.17,0.35
61680,0.64,-0.32,0.72,-0.28,-1.82,0.0
61700,0.64,-0.32,0.72,-0.28,-2.1,-0.07
61720,0.64,-0.32,0.72,0.07,-2.1,0.21
61740,0.64,-0.32,0.72,0.28,-2.31,0.28
61760,0.64,-0.32,0.72,0.14,-2.31,0.35
61780,0.64,-0.33,0.72,0.21,-1.96,0.28
61800,0.64,-0.32,0.72,0.49,-2.03,0.42
61820,0.65,-0.32,0.72,0.21,-1.68,0.35
61840,0.64,-0.33,0.72,-0.14,-1.68,0.49
61860,0.64,-0.33,0.71,0.49,-1.54,0.42
61880,0.64,-0.32,0.72,0.49,-1.96,0.49
61900,0.65,-0.32,0.72,0.49,-2.03,0.56
61920,0.65,-0.33,0.72,0.42,-1.96,0.77
61940,0.64,-0.32,0.71,0.7,-1.96,0.63
61960,0.64,-0.32,0.71,0.21,-1.96,0.56
61980,0.64,-0.32,0.72,0.42,-1.96,0.84
62000,0.64,-0.33,0.71,0.35,-2.1,0.63
62020,0.64,-0.32,0.72,0.63,-2.24,0.42
62040,0.64,-0.32,0.71,0.42,-2.03,0.56
62060,0.65,-0.33,0.71,0.56,-1.96,0.56
62080,0.65,-0.33,0.71,0.63,-1.54,0.49
62100,0.64,-0.32,0.71,0.63,-1.61,0.35
62120,0.65,-0.32,0.71,0.21,-1.82,0.07
62140,0.65,-0.32,0.72,0.7,-0.91,0.63
62160,0.65,-0.32,0.72,0.63,-0.28,0.14
62180,0.65,-0.32,0.71,0.21,0.21,-0.14
62200,0.65,-0.32,0.71,0.42,-0.07,-0.14
62220,0.65,-0.32,0.72,0.28,-0.14,0.0
62240,0.65,-0.32,0.72,0.7,0.7,0.07
62260,0.64,-0.32,0.71,0.7,0.49,0.0
62280,0.65,-0.32,0.72,0.63,0.91,-0.28
62300,0.64,-0.32,0.72,0.84,1.12,-0.42
62320,0.64,-0.32,0.72,0.0,1.61,-1.05
62340,0.64,-0.32,0.71,-0.07,1.68,-0.84
62360,0.64,-0.32,0.72,0.28,1.05,-0.35
62380,0.64,-0.32,0.72,0.84,0.84,0.0
62400,0.64,-0.32,0.72,1.19,1.12,0.0
62420,0.64,-0.32,0.72,1.05,0.77,0.21
62440,0.64,-0.32,0.72,0.7,0.42,0.35
62460,0.64,-0.32,0.73,0.7,0.91,0.49
62480,0.63,-0.32,0.72,0.7,0.14,0.49
62500,0.64,-0.32,0.72,0.49,0.28,0.14
62520,0.64,-0.32,0.73,0.91,-0.21,0.56
62540,0.64,-0.32,0.73,0.84,-0.7,0.63
62560,0.63,-0.32,0.72,0.98,-0.63,0.56
62580,0.63,-0.32,0.72,0.77,-1.05,0.49
62600,0.64,-0.32,0.72,0.84,-0.91,0.63
62620,0.63,-0.32,0.72,0.77,-0.84,0.63
62640,0.63,-0.32,0.72,0.91,-1.26,0.56
62660,0.63,-0.32,0.72,0.84,-1.54,0.7
62680,0.64,-0.32,0.72,1.19,-1.68,0.98
62700,0.63,-0.33,0.72,1.26,-2.1,0.98
62720,0.63,-0.32,0.72,0.7,-2.31,0.77
62740,0.63,-0.32,0.73,0.77,-2.38,0.56
62760,0.64,-0.32,0.73,0.63,-2.52,0.56
62780,0.64,-0.32,0.73,0.0,-1.61,0.56
62800,0.64,-0.32,0.72,-0.14,-1.89,0.21
62820,0.64,-0.32,0.72,-0.14,-2.17,-0.14
62840,0.64,-0.32,0.72,-0.28,-2.8,-0.07
62860,0.64,-0.32,0.72,-0.35,-2.24,-0.07
62880,0.64,-0.32,0.72,-0.42,-2.17,-0.07
62900,0.64,-0.32,0.72,-0.42,-2.24,-0.21
62920,0.64,-0.32,0.72,-0.49,-2.31,0.0
62940,0.64,-0.32,0.72,-0.28,-2.24,0.14
62960,0.64,-0.32,0.72,-0.21,-1.68,0.0
62980,0.64,-0.32,0.72,-0.42,-1.54,-0.14
63000,0.64,-0.32,0.72,0.07,-1.68,0.0
63020,0.64,-0.32,0.72,-0.49,-1.4,-0.21
63040,0.64,-0.32,0.72,-0.56,-1.54,-0.35
63060,0.64,-0.32,0.72,0.0,-1.82,-0.35
63080,0.64,-0.32,0.72,-0.07,-2.1,-0.35
63100,0.64,-0.32,0.72,-0.49,-1.68,0.0
63120,0.64,-0.32,0.72,0.07,-1.82,0.07
63140,0.64,-0.32,0.72,0.63,-1.68,0.14
63160,0.64,-0.32,0.72,-0.07,-2.1,0.35
63180,0.64,-0.32,0.72,-0.21,-1.68,0.14
63200,0.64,-0.32,0.72,-0.21,-1.89,0.21
63220,0.64,-0.32,0.72,0.07,-1.96,0.14
63240,0.64,-0.32,0.72,0.0,-1.82,0.14
63260,0.64,-0.32,0.72,-0.14,-1.96,0.21
63280,0.64,-0.32,0.71,0.28,-2.03,0.21
63300,0.64,-0.32,0.72,0.42,-2.31,0.42
63320,0.65,-0.32,0.72,0.28,-1.89,0.49
63340,0.65,-0.32,0.72,0.49,-1.96,0.56
63360,0.65,-0.32,0.72,0.91,-2.03,0.7
63380,0.64,-0.32,0.71,0.63,-1.68,0.42
63400,0.65,-0.32,0.72,0.63,-1.68,0.77
63420,0.64,-0.32,0.72,0.14,-1.61,0.56
63440,0.64,-0.32,0.72,0.0,-1.61,0.07
63460,0.64,-0.32,0.71,0.28,-1.47,0.21
63480,0.65,-0.32,0.72,0.35,-1.68,0.35
63500,0.65,-0.32,0.72,0.56,-1.33,0.28
63520,0.64,-0.32,0.71,0.0,-1.61,0.07
63540,0.65,-0.32,0.71,0.28,-1.12,0.07
63560,0.64,-0.32,0.71,0.21,-1.47,0.28
63580,0.65,-0.32,0.71,-17.85,-1.54,-0.07
63600,0.64,-0.32,0.72,0.21,-1.47,0.28
63620,0.65,-0.32,0.72,0.98,-0.28,0.42
63640,0.65,-0.32,0.72,0.49,-0.42,0.35
63660,0.64,-0.32,0.72,0.07,-0.28,0.14
63680,0.64,-0.32,0.72,0.21,17.85,0.07
63700,0.64,-0.32,0.72,0.21,0.0,-0.07
63720,0.65,-0.32,0.72,0.7,0.0,0.21
63740,0.64,-0.32,0.72,0.91,0.42,0.49
63760,0.64,-0.32,0.72,0.56,0.49,0.14
63780,0.64,-0.32,0.72,0.56,0.28,0.0
