t,ax,ay,az,gx,gy,gz
22655, 0.65, -0.35, 0.70, 0.35, 0.00, -0.21
22656, 0.65, -0.35, 0.70, 0.77, -0.07, -0.07
22657, 0.65, -0.35, 0.70, 0.42, -0.14, 0.07
22658, 0.65, -0.35, 0.70, 0.49, -0.21, 0.14
22659, 0.65, -0.35, 0.70, 0.35, -0.14, 0.14
22660, 0.65, -0.35, 0.70, 0.56, 0.00, 0.07
22661, 0.65, -0.35, 0.70, 0.21, 0.14, -0.07
22662, 0.65, -0.35, 0.70, -0.14, 0.49, -0.07
22663, 0.65, -0.35, 0.70, 0.49, 0.14, 0.14
22664, 0.65, -0.35, 0.70, 0.42, 0.49, -0.28
22665, 0.65, -0.35, 0.70, 0.35, -0.21, -0.14
22666, 0.65, -0.35, 0.70, 0.42, 0.00, 0.28
22667, 0.65, -0.35, 0.70, 0.42, -0.14, 0.14
22668, 0.65, -0.35, 0.70, 0.21, -0.28, -0.14
22669, 0.64, -0.35, 0.70, 0.35, -0.42, 0.42
22670, 0.65, -0.35, 0.71, 0.63, -0.21, 0.21
22671, 0.65, -0.35, 0.70, 0.42, -0.49, 0.14
22672, 0.64, -0.35, 0.70, 0.49, -0.56, 0.21
22673, 0.65, -0.35, 0.70, 0.77, -0.84, 0.35
22674, 0.64, -0.35, 0.70, 0.56, -0.63, 0.49
22675, 0.64, -0.35, 0.70, 0.91, -0.84, 0.56
22676, 0.65, -0.35, 0.70, 0.70, -0.56, 0.49
22677, 0.64, -0.35, 0.70, 0.91, -0.77, 0.84
22678, 0.64, -0.35, 0.70, 0.91, -0.84, 0.98
22679, 0.64, -0.35, 0.70, 1.19, -1.33, 0.70
22680, 0.64, -0.35, 0.70, 1.33, -1.68, 0.56
22681, 0.64, -0.35, 0.71, 1.26, -2.66, 0.77
22682, 0.65, -0.35, 0.70, 0.42, -2.10, 0.56
22683, 0.65, -0.35, 0.70, 0.42, -2.38, 0.63
22684, 0.65, -0.35, 0.70, -0.07, -2.17, 0.56
22685, 0.64, -0.35, 0.70, 0.00, -2.24, 0.21
22686, 0.65, -0.35, 0.70, -0.14, -2.03, 0.21
22687, 0.65, -0.35, 0.70, -0.49, -2.38, 0.14
22688, 0.65, -0.35, 0.70, -0.21, -2.45, 0.21
22689, 0.65, -0.35, 0.70, -0.21, -2.52, 0.07
22690, 0.65, -0.35, 0.70, -0.21, -2.52, 0.07
22691, 0.65, -0.35, 0.70, -0.21, -2.10, 0.14
22692, 0.65, -0.35, 0.70, -0.14, -2.73, 0.00
22693, 0.65, -0.35, 0.70, -0.21, -1.68, 0.07
22694, 0.65, -0.35, 0.70, -0.28, -2.03, 0.28
22695, 0.65, -0.35, 0.70, -0.28, -1.82, -0.14
22696, 0.65, -0.35, 0.70, -0.14, -1.75, -0.07
22697, 0.65, -0.35, 0.70, -0.07, -2.03, 0.28
22698, 0.65, -0.35, 0.70, -0.28, -1.40, -0.14
22699, 0.65, -0.35, 0.70, -0.21, -1.75, 0.00
22700, 0.65, -0.35, 0.70, -0.42, -1.68, 0.07
22701, 0.65, -0.35, 0.70, 0.07, -1.82, 0.21
22702, 0.65, -0.35, 0.70, -0.07, -1.82, -0.07
22703, 0.65, -0.35, 0.70, -0.07, -1.82, -0.07
22704, 0.65, -0.35, 0.70, 0.07, -1.61, 0.21
22705, 0.65, -0.35, 0.70, 0.07, -2.03, 0.21
22706, 0.65, -0.35, 0.70, 0.00, -1.40, 0.07
22707, 0.65, -0.35, 0.69, -0.07, -1.40, 0.14
22708, 0.65, -0.35, 0.70, 0.00, -1.82, -0.14
22709, 0.65, -0.35, 0.70, -0.14, -1.26, 0.35
22710, 0.65, -0.35, 0.70, 0.35, -1.75, 0.28
22711, 0.65, -0.35, 0.69, 0.21, -1.54, -0.21
22712, 0.65, -0.35, 0.69, 0.35, -1.61, 0.42
22713, 0.65, -0.35, 0.70, 0.35, -1.68, 0.49
22714, 0.65, -0.35, 0.70, 0.21, -1.19, 0.28
22715, 0.65, -0.35, 0.70, 0.98, 0.35, 0.42
22716, 0.66, -0.35, 0.69, 0.28, 0.00, 0.63
22717, 0.65, -0.35, 0.69, 0.35, 0.14, 0.35
22718, 0.65, -0.35, 0.70, 0.49, -0.35, 0.00
22719, 0.65, -0.35, 0.70, 0.56, -0.42, 0.00
22720, 0.65, -0.35, 0.70, 1.26, -0.35, 0.35
22721, 0.65, -0.35, 0.70, 0.63, -0.14, 0.21
22722, 0.65, -0.35, 0.69, 0.35, -0.21, -0.07
22723, 0.65, -0.35, 0.70, 0.70, 0.14, 0.14
22724, 0.65, -0.35, 0.70, 0.35, 0.00, 0.07
22725, 0.65, -0.35, 0.70, -0.14, 0.70, -0.14
22726, 0.65, -0.35, 0.70, 0.42, 0.70, -0.14
22727, 0.65, -0.35, 0.70, 0.42, 0.28, 0.07
22728, 0.65, -0.35, 0.70, 0.84, -0.07, 0.28
22729, 0.65, -0.35, 0.70, 0.70, 0.00, 0.21
22730, 0.65, -0.35, 0.70, 0.63, -0.35, 0.14
22731, 0.65, -0.35, 0.70, 0.63, -0.28, 0.42
22732, 0.65, -0.35, 0.70, 0.70, 0.07, 0.14
22733, 0.64, -0.35, 0.70, 0.49, -0.42, 0.14
22734, 0.65, -0.35, 0.70, 0.14, -0.49, 0.14
22735, 0.64, -0.35, 0.70, 0.49, -0.49, 0.21
22736, 0.64, -0.35, 0.70, 0.63, -0.84, 0.35
22737, 0.64, -0.35, 0.70, 1.05, -1.19, 0.42
22738, 0.65, -0.35, 0.70, 0.70, -0.56, 0.49
22739, 0.64, -0.35, 0.70, 1.33, -0.77, 1.05
22740, 0.65, -0.35, 0.70, 1.33, -0.84, 1.26
22741, 0.64, -0.36, 0.70, 1.47, -1.40, 0.70
22742, 0.64, -0.35, 0.70, 1.26, -1.89, 0.35
22743, 0.64, -0.35, 0.71, 0.84, -2.73, 0.98
22744, 0.64, -0.35, 0.70, 0.91, -2.66, 0.98
22745, 0.64, -0.35, 0.70, 0.28, -2.45, 0.42
22746, 0.64, -0.35, 0.70, 0.07, -2.38, 0.56
22747, 0.64, -0.35, 0.70, -0.07, -2.87, 0.63
22748, 0.65, -0.35, 0.70, -0.14, -2.38, 0.21
22749, 0.65, -0.35, 0.70, -0.49, -2.45, 0.14
22750, 0.65, -0.35, 0.70, -0.42, -2.94, 0.14
22751, 0.65, -0.35, 0.70, -0.14, -2.73, 0.14
22752, 0.65, -0.35, 0.70, -0.91, -1.96, -0.14
22753, 0.65, -0.35, 0.70, 0.07, -2.59, 0.28
22754, 0.65, -0.35, 0.70, -0.28, -2.03, 0.00
22755, 0.65, -0.35, 0.70, -0.14, -2.03, -0.07
22756, 0.65, -0.35, 0.70, -0.35, -1.40, 0.35
22757, 0.65, -0.35, 0.70, -0.07, -1.68, -0.07
22758, 0.65, -0.35, 0.70, -0.28, -1.47, -0.42
22759, 0.65, -0.35, 0.70, -0.07, -1.54, 0.21
22760, 0.65, -0.35, 0.70, 0.14, -1.54, 0.42
22761, 0.65, -0.35, 0.70, -0.21, -1.75, -0.07
22762, 0.65, -0.35, 0.70, -0.42, -1.40, 0.07
22763, 0.65, -0.35, 0.70, 0.07, -1.82, 0.42
22764, 0.65, -0.35, 0.70, 0.14, -1.47, 0.00
22765, 0.65, -0.35, 0.69, 0.21, -1.96, -0.14
22766, 0.65, -0.35, 0.70, -0.28, -1.54, 0.07
22767, 0.65, -0.35, 0.70, 0.07, -2.17, 0.14
22768, 0.65, -0.35, 0.69, 0.14, -1.75, 0.14
22769, 0.65, -0.35, 0.69, 0.28, -1.61, 0.56
22770, 0.65, -0.35, 0.70, 0.35, -2.38, 0.49
22771, 0.65, -0.35, 0.70, 0.28, -1.75, 0.56
22772, 0.65, -0.35, 0.70, -0.07, -1.68, 0.49
22773, 0.65, -0.35, 0.70, -0.07, -1.75, 0.21
22774, 0.65, -0.35, 0.69, 0.00, -1.75, -0.07
22775, 0.65, -0.35, 0.70, 0.28, -1.89, 0.21
22776, 0.65, -0.35, 0.70, 0.00, -1.61, 0.07
22777, 0.65, -0.35, 0.69, 0.21, -1.75, 0.14
22778, 0.65, -0.35, 0.70, 0.28, -1.54, 0.56
22779, 0.66, -0.35, 0.69, 0.98, -0.35, 0.63
22780, 0.66, -0.35, 0.69, 0.42, -0.21, 0.14
22781, 0.65, -0.35, 0.69, 0.35, -0.14, 0.07
22782, 0.65, -0.35, 0.69, 0.42, -0.21, 0.14
22783, 0.65, -0.35, 0.70, 0.21, 0.00, -0.07
22784, 0.65, -0.35, 0.70, 0.00, 0.35, -0.28
22785, 0.65, -0.35, 0.69, 0.42, 0.21, -0.07
22786, 0.65, -0.35, 0.70, 0.35, 0.49, -0.14
22787, 0.65, -0.35, 0.70, 0.56, 0.35, -0.21
22788, 0.65, -0.35, 0.70, 0.14, 0.84, -0.28
22789, 0.65, -0.35, 0.70, 0.21, 1.12, -0.63
22790, 0.65, -0.35, 0.70, 0.21, 0.56, -0.28
22791, 0.65, -0.35, 0.70, 0.70, 0.70, -0.07
22792, 0.64, -0.35, 0.70, 0.70, 0.70, 0.21
22793, 0.65, -0.35, 0.70, 0.63, 0.00, 0.14
22794, 0.65, -0.35, 0.70, 0.56, 0.14, 0.07
22795, 0.65, -0.35, 0.70, 0.84, -0.07, -0.14
22796, 0.64, -0.35, 0.70, 0.42, -0.21, -0.35
22797, 0.65, -0.35, 0.70, 0.00, 0.21, -0.14
22798, 0.65, -0.35, 0.70, 0.28, -0.28, 0.07
22799, 0.64, -0.35, 0.70, 0.42, -0.21, 0.21
22800, 0.65, -0.35, 0.70, 0.56, -0.21, 0.42
22801, 0.64, -0.35, 0.70, 0.35, -0.56, 0.42
22802, 0.64, -0.35, 0.70, 0.98, -0.91, 0.56
22803, 0.65, -0.35, 0.71, 0.91, -0.84, 0.84
22804, 0.64, -0.35, 0.70, 1.40, -0.98, 0.91
22805, 0.64, -0.35, 0.70, 1.33, -1.54, 0.98
22806, 0.64, -0.35, 0.70, 1.05, -1.89, 0.70
22807, 0.64, -0.35, 0.70, 1.26, -2.17, 0.98
22808, 0.64, -0.35, 0.70, 0.84, -2.17, 0.70
22809, 0.65, -0.35, 0.70, 0.70, -2.59, 0.63
22810, 0.64, -0.35, 0.70, 0.49, -2.31, 0.70
22811, 0.64, -0.35, 0.70, 0.00, -2.52, 0.56
22812, 0.64, -0.35, 0.70, -0.56, -3.43, 0.35
22813, 0.65, -0.35, 0.70, -0.56, -3.36, 0.91
22814, 0.65, -0.34, 0.70, -0.91, -3.64, 1.12
22815, 0.65, -0.35, 0.70, -0.42, -3.78, 0.28
22816, 0.65, -0.35, 0.70, -0.42, -3.01, 0.14
22817, 0.65, -0.35, 0.69, -0.84, -3.15, -0.07
22818, 0.65, -0.35, 0.70, -0.84, -2.52, -0.28
22819, 0.66, -0.35, 0.70, -0.84, -1.75, 0.07
22820, 0.65, -0.35, 0.70, -0.42, -1.40, -0.14
22821, 0.65, -0.35, 0.69, -0.42, -1.54, -0.35
22822, 0.65, -0.35, 0.69, 0.14, -1.68, 0.21
22823, 0.65, -0.35, 0.70, 0.28, -1.96, 0.35
22824, 0.65, -0.35, 0.70, -0.14, -1.61, 0.14
22825, 0.65, -0.35, 0.70, 0.00, -1.26, 0.21
22826, 0.65, -0.35, 0.70, 0.14, -1.40, 0.21
22827, 0.65, -0.35, 0.70, 0.07, -1.82, 0.14
22828, 0.65, -0.35, 0.70, -0.07, -1.61, 0.07
22829, 0.65, -0.35, 0.70, 0.00, -1.40, 0.28
22830, 0.65, -0.35, 0.69, 0.14, -1.75, 0.35
22831, 0.65, -0.36, 0.70, 0.42, -2.17, 0.42
22832, 0.65, -0.35, 0.69, 0.21, -2.10, 0.35
22833, 0.65, -0.35, 0.69, 0.77, -1.96, 0.42
22834, 0.66, -0.35, 0.70, 0.35, -1.96, 0.77
22835, 0.65, -0.35, 0.70, 0.21, -2.03, 0.63
22836, 0.65, -0.35, 0.69, 0.35, -1.89, 0.07
22837, 0.65, -0.35, 0.69, 0.28, -2.10, 0.07
22838, 0.65, -0.35, 0.70, 0.56, -2.10, 0.56
22839, 0.66, -0.34, 0.70, 0.49, -0.63, 0.49
22840, 0.66, -0.35, 0.69, 0.28, 0.00, -0.21
22841, 0.65, -0.35, 0.69, 0.21, 0.91, -0.84
22842, 0.66, -0.36, 0.69, 1.19, 1.40, -1.82
22843, 0.65, -0.35, 0.69, 0.07, 0.91, -1.19
22844, 0.65, -0.35, 0.70, -0.28, 0.28, 0.21
22845, 0.65, -0.35, 0.70, 0.77, 0.07, 0.28
22846, 0.65, -0.35, 0.70, 1.47, 0.07, 0.70
22847, 0.65, -0.35, 0.70, 2.10, 0.00, 0.77
22848, 0.65, -0.35, 0.70, 1.68, -0.14, 0.00
22849, 0.65, -0.35, 0.70, -0.42, 1.68, -1.61
22850, 0.65, -0.35, 0.70, -0.63, 1.26, -0.49
22851, 0.64, -0.35, 0.70, 0.42, -0.28, 0.77
22852, 0.65, -0.34, 0.71, 0.14, 0.63, -17.85
22853, 0.65, -0.34, 0.71, 1.96, -0.21, -0.28
22854, 0.64, -0.35, 0.71, 2.66, -0.70, -1.54
22855, 0.65, -0.36, 0.70, 2.73, -0.70, -3.64
22856, 0.65, -0.35, 0.69, 0.70, 2.66, -3.92
22857, 0.65, -0.34, 0.70, -1.05, 1.12, -3.08
22858, 0.65, -0.34, 0.70, -0.49, 0.98, -1.54
22859, 0.64, -0.34, 0.70, 0.56, -0.56, 0.21
22860, 0.65, -0.35, 0.71, 2.24, -1.33, 0.98
22861, 0.64, -0.34, 0.71, 2.80, -1.89, 2.03
22862, 0.64, -0.34, 0.71, 3.50, -2.59, 2.52
22863, 0.65, -0.33, 0.71, 2.31, -1.89, 2.38
22864, 0.65, -0.33, 0.71, 1.19, -0.98, 1.61
22865, 0.64, -0.34, 0.70, 0.91, -1.75, 1.05
22866, 0.64, -0.35, 0.71, 0.91, -1.19, 0.98
22867, 0.64, -0.35, 0.71, 1.47, -1.61, 0.77
22868, 0.64, -0.35, 0.70, 0.84, -2.31, 1.33
22869, 0.65, -0.35, 0.70, 0.91, -2.66, 1.47
22870, 0.65, -0.35, 0.70, 1.05, -2.94, 1.61
22871, 0.65, -0.34, 0.70, 0.56, -2.94, 1.05
22872, 0.65, -0.35, 0.70, 0.14, -3.08, 0.70
22873, 0.65, -0.34, 0.70, -0.14, -2.17, 0.21
22874, 0.65, -0.35, 0.70, -0.63, -1.89, -0.14
22875, 0.65, -0.34, 0.70, -0.77, -1.89, -0.42
22876, 0.65, -0.34, 0.70, -0.49, -1.40, -0.49
22877, 0.65, -0.34, 0.70, -0.28, -1.26, -0.63
22878, 0.65, -0.34, 0.70, -0.28, -0.98, -0.98
22879, 0.66, -0.34, 0.70, -0.77, -0.56, -1.75
22880, 0.65, -0.35, 0.69, -0.77, -1.12, -0.70
22881, 0.64, -0.34, 0.70, -0.21, -1.68, 1.26
22882, 0.65, -0.34, 0.71, 0.00, -2.24, 1.05
22883, 0.65, -0.34, 0.70, 0.56, -1.89, 0.14
22884, 0.65, -0.34, 0.70, 0.42, -2.03, 0.14
22885, 0.65, -0.34, 0.70, 0.42, -1.68, 0.00
22886, 0.65, -0.34, 0.70, -0.21, -1.54, -0.28
22887, 0.65, -0.34, 0.70, -0.14, -1.12, 0.00
22888, 0.65, -0.34, 0.70, -0.56, -1.75, 0.28
22889, 0.65, -0.35, 0.70, 0.07, -1.54, 0.07
22890, 0.65, -0.34, 0.70, -0.21, -1.54, -0.42
22891, 0.65, -0.34, 0.70, 0.28, -1.47, -0.84
22892, 0.65, -0.35, 0.70, 0.00, -0.98, -1.19
22893, 0.65, -0.35, 0.69, -0.98, -0.28, -1.61
22894, 0.65, -0.35, 0.70, -0.14, -0.49, -0.49
22895, 0.65, -0.34, 0.70, 0.00, -1.40, 0.28
22896, 0.65, -0.34, 0.71, 0.91, -1.96, 0.56
22897, 0.65, -0.34, 0.70, 0.49, -2.03, 0.91
22898, 0.65, -0.35, 0.70, 0.70, -2.31, 1.26
22899, 0.65, -0.34, 0.70, 0.84, -2.59, 0.98
22900, 0.66, -0.34, 0.70, 1.19, -1.89, 0.35
22901, 0.65, -0.34, 0.70, 0.77, -1.89, 0.42
22902, 0.65, -0.34, 0.70, -0.49, -1.82, 0.07
22903, 0.66, -0.35, 0.70, 0.07, -1.40, 0.35
22904, 0.65, -0.34, 0.70, 0.00, -0.84, 0.14
22905, 0.66, -0.34, 0.70, 0.56, 0.07, 0.21
22906, 0.65, -0.35, 0.69, 0.42, -0.56, 0.14
22907, 0.65, -0.35, 0.69, 0.77, -0.63, 0.56
22908, 0.65, -0.34, 0.70, 1.12, -1.12, 0.56
22909, 0.65, -0.34, 0.70, 1.19, -0.63, 0.07
22910, 0.66, -0.34, 0.69, 1.19, 0.21, -0.49
22911, 0.65, -0.34, 0.70, 0.56, -0.56, 0.49
22912, 0.65, -0.33, 0.71, 0.70, -0.28, 1.40
22913, 0.65, -0.34, 0.71, 0.91, -0.07, 0.63
22914, 0.65, -0.34, 0.70, 0.98, 0.84, -0.84
22915, 0.65, -0.34, 0.70, 0.56, 1.19, -1.26
22916, 0.65, -0.35, 0.70, 0.00, 1.12, -1.26
22917, 0.65, -0.35, 0.70, 0.07, 1.19, -1.40
22918, 0.65, -0.34, 0.71, -0.35, 1.75, -1.75
22919, 0.65, -0.34, 0.70, -0.70, 2.73, -1.47
22920, 0.65, -0.34, 0.71, 0.98, 2.52, -0.63
22921, 0.65, -0.33, 0.71, 2.59, 2.31, -2.31
22922, 0.65, -0.35, 0.70, 0.14, 2.87, -5.18
22923, 0.65, -0.34, 0.71, -0.56, 3.36, -5.60
22924, 0.65, -0.34, 0.71, -0.63, 3.01, -4.13
22925, 0.64, -0.34, 0.71, -0.84, 4.27, -3.08
22926, 0.64, -0.33, 0.71, -1.12, 6.16, -2.38
22927, 0.63, -0.33, 0.71, -1.61, 4.27, -1.47
22928, 0.63, -0.33, 0.72, -0.49, 2.03, 0.84
22929, 0.63, -0.33, 0.72, 0.91, -0.63, 2.17
22930, 0.63, -0.33, 0.72, 1.61, -2.24, 1.75
22931, 0.64, -0.32, 0.73, 1.68, -2.52, 1.68
22932, 0.64, -0.33, 0.72, 1.54, -2.03, 0.42
22933, 0.64, -0.34, 0.72, 0.21, -2.31, -0.07
22934, 0.64, -0.33, 0.72, -1.05, -0.28, -1.05
22935, 0.65, -0.34, 0.72, -0.91, 1.33, -1.82
22936, 0.64, -0.35, 0.71, -0.98, 0.91, -1.54
22937, 0.62, -0.34, 0.71, -0.42, -1.26, 0.77
22938, 0.62, -0.33, 0.71, 0.70, -4.41, 2.03
22939, 0.64, -0.34, 0.72, 1.82, -4.83, 2.80
22940, 0.64, -0.33, 0.72, 2.24, -4.13, 2.66
22941, 0.64, -0.33, 0.72, 1.75, -4.34, 2.66
22942, 0.65, -0.33, 0.72, 1.61, -2.59, 1.75
22943, 0.65, -0.33, 0.72, -0.21, -0.35, -0.21
22944, 0.65, -0.33, 0.72, -0.84, 2.52, -1.82
22945, 0.65, -0.34, 0.71, -1.26, 2.59, -3.71
22946, 0.64, -0.35, 0.71, -1.89, 3.64, -3.22
22947, 0.64, -0.34, 0.71, -2.52, 2.17, -2.31
22948, 0.64, -0.34, 0.71, -1.05, 2.24, -1.40
22949, 0.63, -0.34, 0.71, 0.56, 0.35, 0.14
22950, 0.63, -0.34, 0.71, 0.91, -0.91, 0.84
22951, 0.64, -0.33, 0.72, 1.54, -1.33, 1.26
22952, 0.63, -0.33, 0.72, 1.40, -1.33, 1.05
22953, 0.64, -0.33, 0.73, 0.70, -0.49, 0.49
22954, 0.63, -0.33, 0.72, 0.35, -0.28, 0.00
22955, 0.63, -0.33, 0.72, 0.00, -0.49, -0.77
22956, 0.63, -0.34, 0.72, -0.77, -0.49, -0.77
22957, 0.63, -0.33, 0.72, -0.63, -0.42, -0.14
22958, 0.63, -0.33, 0.72, -0.07, -0.21, -0.49
22959, 0.64, -0.33, 0.72, 1.05, 0.14, 0.07
22960, 0.63, -0.34, 0.72, 0.84, -0.21, 0.91
22961, 0.63, -0.33, 0.72, 1.26, -0.35, 0.49
22962, 0.63, -0.33, 0.72, 1.33, -1.47, 0.56
22963, 0.63, -0.33, 0.72, 1.68, -0.70, 0.84
22964, 0.63, -0.34, 0.72, 1.89, -0.84, 1.05
22965, 0.63, -0.33, 0.72, 1.54, -0.77, 0.70
22966, 0.63, -0.33, 0.73, 1.26, -0.35, 0.56
22967, 0.63, -0.33, 0.72, 1.33, -0.35, 0.84
22968, 0.63, -0.33, 0.72, 1.33, -0.70, 0.70
22969, 0.63, -0.33, 0.72, 0.77, -0.77, 0.49
22970, 0.63, -0.33, 0.72, 1.26, -0.98, 0.56
22971, 0.63, -0.33, 0.72, 1.26, -1.19, 0.56
22972, 0.63, -0.33, 0.72, 1.33, -1.12, 0.49
22973, 0.63, -0.33, 0.72, 1.26, -1.12, 0.91
22974, 0.63, -0.33, 0.72, 0.63, -1.82, 0.84
22975, 0.64, -0.33, 0.73, 0.98, -0.77, 1.12
22976, 0.63, -0.33, 0.72, 0.70, -0.56, 0.91
22977, 0.63, -0.33, 0.72, 1.47, -0.21, 0.70
22978, 0.63, -0.33, 0.72, 1.19, -0.84, 0.77
22979, 0.63, -0.33, 0.72, 0.91, -0.84, 0.70
22980, 0.63, -0.33, 0.72, 0.84, -0.84, 0.63
22981, 0.63, -0.33, 0.73, 0.63, -0.28, 0.28
22982, 0.63, -0.33, 0.72, 1.05, -0.63, 0.63
22983, 0.63, -0.33, 0.72, 1.19, -0.28, 0.63
22984, 0.63, -0.33, 0.72, 1.47, -0.84, 0.35
22985, 0.63, -0.34, 0.72, 1.26, -1.61, 0.49
22986, 0.63, -0.33, 0.73, 1.40, -1.54, 0.70
22987, 0.63, -0.33, 0.73, 1.19, -1.68, 0.63
22988, 0.63, -0.34, 0.72, 0.84, -2.10, 0.77
22989, 0.62, -0.34, 0.73, 1.96, -3.85, 2.24
22990, 0.62, -0.33, 0.73, 4.27, -6.16, 3.99
22991, 0.63, -0.33, 0.73, 4.34, -5.95, 4.27
22992, 0.62, -0.33, 0.72, 1.47, -7.56, 3.85
22993, 0.63, -0.33, 0.72, 0.77, -8.33, 2.80
22994, 0.64, -0.33, 0.72, 0.21, -7.00, 2.24
22995, 0.64, -0.33, 0.72, -0.49, -5.81, 2.38
22996, 0.64, -0.33, 0.71, -1.96, -5.25, 1.96
22997, 0.65, -0.34, 0.71, -2.10, -5.95, 2.03
22998, 0.64, -0.33, 0.72, -3.50, -4.41, 3.15
22999, 0.65, -0.34, 0.72, -4.62, -4.34, 2.59
23000, 0.63, -0.35, 0.71, -1.33, -6.51, 3.29
23001, 0.64, -0.34, 0.71, -1.05, -7.56, 2.80
23002, 0.66, -0.33, 0.71, -2.80, -5.81, 1.96
23003, 0.65, -0.32, 0.71, -3.43, -2.03, 1.61
23004, 0.64, -0.34, 0.71, -3.01, -2.45, 0.56
23005, 0.65, -0.34, 0.70, -3.43, -2.24, -1.40
23006, 0.66, -0.35, 0.70, -1.82, -1.26, -2.66
23007, 0.65, -0.36, 0.70, -0.70, -0.77, -3.01
23008, 0.64, -0.36, 0.69, -0.63, -0.98, -2.45
23009, 0.65, -0.35, 0.70, -1.26, -0.28, -1.68
23010, 0.65, -0.35, 0.71, -0.63, -1.12, -0.42
23011, 0.65, -0.35, 0.70, 0.91, -1.75, 0.14
23012, 0.65, -0.35, 0.70, 0.63, -2.31, 0.21
23013, 0.64, -0.34, 0.71, 1.26, -2.38, 0.07
23014, 0.65, -0.34, 0.71, 0.07, -2.87, -0.91
23015, 0.65, -0.33, 0.70, -1.33, -1.12, -1.54
23016, 0.65, -0.33, 0.71, -2.31, -0.35, -1.96
23017, 0.65, -0.34, 0.71, -1.40, 0.56, -0.56
23018, 0.65, -0.34, 0.71, -1.33, 1.05, 0.00
23019, 0.65, -0.34, 0.70, -0.98, 1.33, 0.00
23020, 0.65, -0.34, 0.70, 0.07, 1.26, -0.70
23021, 0.65, -0.34, 0.71, 0.42, 1.05, -0.42
23022, 0.65, -0.34, 0.70, 1.12, 1.26, 0.49
23023, 0.65, -0.35, 0.70, 0.98, 0.77, 0.42
23024, 0.65, -0.35, 0.70, 1.26, 0.63, 0.35
23025, 0.65, -0.34, 0.71, 1.61, 0.56, 0.63
23026, 0.65, -0.35, 0.70, 1.47, 0.42, 1.19
23027, 0.64, -0.34, 0.71, 1.33, 0.49, 0.84
23028, 0.64, -0.35, 0.71, 0.77, 0.91, 0.35
23029, 0.64, -0.35, 0.71, 0.63, 0.21, 0.56
23030, 0.64, -0.34, 0.71, -0.14, 0.77, 0.07
23031, 0.64, -0.34, 0.71, -0.35, 0.35, 0.00
23032, 0.64, -0.34, 0.71, 0.21, -0.14, 0.00
23033, 0.64, -0.35, 0.71, -0.07, -0.21, -0.49
23034, 0.64, -0.35, 0.71, -0.28, 0.14, -0.35
23035, 0.64, -0.35, 0.71, -0.14, -0.14, 0.14
23036, 0.64, -0.34, 0.71, -0.14, -0.56, 0.14
23037, 0.64, -0.34, 0.71, -0.14, 0.14, 0.35
23038, 0.64, -0.34, 0.71, 0.21, -0.35, 0.28
23039, 0.64, -0.34, 0.71, 0.14, -0.14, 0.07
23040, 0.64, -0.34, 0.71, 0.56, -0.49, 0.42
23041, 0.64, -0.34, 0.71, 1.05, -1.05, 0.91
23042, 0.64, -0.35, 0.71, 1.82, -1.12, 0.98
23043, 0.64, -0.34, 0.71, 1.47, -0.98, 0.91
23044, 0.63, -0.34, 0.71, 1.26, -1.75, 0.98
23045, 0.64, -0.34, 0.71, 0.91, -1.89, 0.63
23046, 0.64, -0.34, 0.71, 0.28, -1.89, 0.70
23047, 0.64, -0.34, 0.72, 0.49, -2.17, 0.84
23048, 0.64, -0.35, 0.71, 0.14, -1.68, 0.35
23049, 0.64, -0.35, 0.71, -0.07, -1.54, 0.35
23050, 0.63, -0.35, 0.71, 0.49, -2.24, 0.63
23051, 0.64, -0.34, 0.71, -0.07, -2.52, 0.14
23052, 0.64, -0.34, 0.71, -0.28, -2.38, 0.07
23053, 0.64, -0.34, 0.71, -0.42, -2.59, 0.63
23054, 0.64, -0.35, 0.71, -0.49, -2.03, -0.07
23055, 0.64, -0.34, 0.71, 0.21, -2.45, 0.07
23056, 0.65, -0.34, 0.71, 0.00, -2.45, 0.28
23057, 0.64, -0.35, 0.71, 0.07, -2.31, 0.21
23058, 0.64, -0.34, 0.71, 0.07, -2.24, 0.07
23059, 0.64, -0.34, 0.71, -0.14, -1.89, 0.14
23060, 0.64, -0.34, 0.71, 0.07, -2.17, 0.35
23061, 0.65, -0.34, 0.71, -0.49, -1.54, 0.14
23062, 0.64, -0.35, 0.71, -0.14, -2.31, 0.21
23063, 0.64, -0.34, 0.71, 0.14, -2.17, 0.07
23064, 0.64, -0.35, 0.71, 0.14, -1.68, 0.14
23065, 0.65, -0.35, 0.71, 0.21, -1.40, 0.07
23066, 0.64, -0.34, 0.71, -0.28, -1.40, -0.07
23067, 0.64, -0.34, 0.71, -0.07, -1.33, -0.21
23068, 0.64, -0.35, 0.71, -0.35, -1.40, 0.21
23069, 0.65, -0.35, 0.71, -0.28, -1.12, 0.00
23070, 0.64, -0.34, 0.70, -0.14, -1.40, -0.35
23071, 0.64, -0.35, 0.71, -0.28, -1.61, 0.21
23072, 0.64, -0.35, 0.71, 0.63, -1.96, 0.42
23073, 0.64, -0.34, 0.71, 0.28, -1.82, 0.14
23074, 0.65, -0.35, 0.70, 0.42, -1.54, 0.28
23075, 0.65, -0.34, 0.71, 0.07, -1.61, 0.35
23076, 0.65, -0.35, 0.70, 0.21, -1.61, 0.21
23077, 0.64, -0.34, 0.71, -0.14, -1.82, 0.07
23078, 0.65, -0.35, 0.71, 0.21, -1.68, 0.07
23079, 0.64, -0.35, 0.70, 0.21, -1.75, 0.35
23080, 0.65, -0.35, 0.70, 0.63, -1.89, 0.49
23081, 0.65, -0.35, 0.71, 0.49, -1.96, 0.56
23082, 0.65, -0.34, 0.71, 0.77, -0.49, 0.42
23083, 0.65, -0.34, 0.70, 0.28, 0.21, 0.56
23084, 0.65, -0.35, 0.70, 0.14, 0.07, 0.35
23085, 0.64, -0.35, 0.70, 0.35, -0.35, -0.28
23086, 0.65, -0.34, 0.71, 0.56, -0.35, -0.14
23087, 0.65, -0.35, 0.71, 0.70, -0.49, 0.35
23088, 0.65, -0.35, 0.71, 0.56, -0.21, 0.42
23089, 0.64, -0.35, 0.70, 0.84, -0.35, 0.28
23090, 0.64, -0.34, 0.71, 0.63, -0.21, 0.28
23091, 0.64, -0.34, 0.71, 0.63, 0.00, 0.28
23092, 0.64, -0.34, 0.71, 0.28, -0.07, -0.14
23093, 0.64, -0.34, 0.71, 0.21, -0.14, -0.07
23094, 0.64, -0.34, 0.71, 0.63, -0.42, 0.21
23095, 0.64, -0.34, 0.71, 0.56, -0.42, -0.07
23096, 0.64, -0.35, 0.71, 0.56, -0.21, 0.21
23097, 0.65, -0.34, 0.71, 0.07, -0.77, 0.14
23098, 0.64, -0.34, 0.71, 0.56, -0.70, 0.42
23099, 0.64, -0.35, 0.71, 0.28, -0.49, 0.42
23100, 0.64, -0.35, 0.71, 0.77, -0.56, 0.21
23101, 0.64, -0.34, 0.71, 0.77, -0.84, 0.21
23102, 0.64, -0.34, 0.71, 0.70, -1.26, 0.49
23103, 0.64, -0.35, 0.71, 0.98, -0.70, 0.63
23104, 0.64, -0.34, 0.71, 0.77, -1.05, 0.42
23105, 0.64, -0.34, 0.71, 1.05, -0.84, 0.56
23106, 0.64, -0.34, 0.71, 1.05, -0.63, 0.77
23107, 0.64, -0.34, 0.71, 0.98, -0.84, 0.70
23108, 0.64, -0.34, 0.71, 1.19, -0.84, 0.63
23109, 0.64, -0.34, 0.71, 1.40, -0.91, 0.91
23110, 0.64, -0.35, 0.71, 1.26, -1.40, 0.49
23111, 0.64, -0.35, 0.71, 0.77, -1.47, 0.28
23112, 0.64, -0.34, 0.71, 1.12, -1.75, 0.28
23113, 0.64, -0.34, 0.71, 0.21, -1.54, 0.28
23114, 0.64, -0.34, 0.71, 0.21, -1.89, 0.63
23115, 0.64, -0.35, 0.71, -0.21, -1.75, 0.42
23116, 0.64, -0.34, 0.71, -0.14, -1.96, 0.00
23117, 0.64, -0.34, 0.71, 0.14, -2.31, 0.14
23118, 0.64, -0.35, 0.71, -0.14, -2.17, 0.21
23119, 0.64, -0.35, 0.71, 0.07, -2.59, 0.42
23120, 0.64, -0.34, 0.71, -0.07, -2.52, 0.14
23121, 0.64, -0.35, 0.71, 0.14, -2.45, 0.35
23122, 0.65, -0.34, 0.71, 0.21, -2.03, 0.21
23123, 0.64, -0.34, 0.71, -0.14, -1.61, 0.00
23124, 0.64, -0.34, 0.70, 0.14, -2.03, 0.28
23125, 0.65, -0.34, 0.71, 0.49, -2.17, 0.42
23126, 0.65, -0.34, 0.71, -0.07, -2.03, 0.07
23127, 0.64, -0.35, 0.71, -0.42, -1.54, 0.00
23128, 0.64, -0.34, 0.71, 0.07, -1.89, 0.07
23129, 0.65, -0.34, 0.70, -0.21, -1.40, -0.07
23130, 0.65, -0.34, 0.70, -0.21, -1.19, 0.28
23131, 0.64, -0.35, 0.71, 0.14, -1.61, 0.35
23132, 0.64, -0.34, 0.71, 0.14, -1.47, 0.14
23133, 0.64, -0.34, 0.71, 0.00, -1.89, 0.07
23134, 0.64, -0.35, 0.71, 0.56, -1.68, 0.35
23135, 0.65, -0.34, 0.71, 0.28, -1.40, 0.00
23136, 0.64, -0.34, 0.70, -0.14, -1.33, -0.14
23137, 0.65, -0.35, 0.71, -0.42, -1.19, 0.07
23138, 0.65, -0.34, 0.70, 0.00, -1.05, 0.21
23139, 0.64, -0.35, 0.71, 0.28, -1.61, 0.00
23140, 0.65, -0.34, 0.70, 0.42, -1.68, 0.14
23141, 0.65, -0.34, 0.70, 0.63, -1.82, 0.35
23142, 0.65, -0.34, 0.70, 0.28, -1.47, 0.14
23143, 0.65, -0.35, 0.70, 0.28, -1.54, 0.49
23144, 0.65, -0.34, 0.71, 0.21, -1.54, 0.14
23145, 0.65, -0.34, 0.70, 0.21, -1.40, 0.21
23146, 0.65, -0.35, 0.70, 0.21, -1.05, 0.42
23147, 0.64, -0.35, 0.71, 0.21, -1.54, 0.21
23148, 0.65, -0.34, 0.70, 0.07, -1.61, 0.00
23149, 0.65, -0.34, 0.70, 0.35, -1.89, 0.28
23150, 0.65, -0.34, 0.71, 0.56, -1.26, 0.63
23151, 0.65, -0.34, 0.70, 0.56, -0.49, 0.56
23152, 0.65, -0.35, 0.70, 0.07, -0.28, 0.49
23153, 0.64, -0.35, 0.70, 0.49, -0.63, 0.28
23154, 0.65, -0.34, 0.71, 0.42, -0.35, 0.00
23155, 0.65, -0.34, 0.70, 0.56, -0.63, 0.07
23156, 0.65, -0.34, 0.70, 0.49, -0.70, 0.14
23157, 0.65, -0.34, 0.70, 0.84, -0.56, 0.00
23158, 0.65, -0.34, 0.70, 0.49, -0.42, 0.00
23159, 0.65, -0.35, 0.71, 0.35, -0.07, 0.14
23160, 0.64, -0.34, 0.71, 0.49, -0.21, 0.00
23161, 0.65, -0.34, 0.71, 0.49, -0.21, -0.14
23162, 0.64, -0.35, 0.71, 0.14, 0.00, 0.28
23163, 0.65, -0.34, 0.71, 0.21, -0.07, 0.14
23164, 0.65, -0.34, 0.71, 0.35, -0.07, -0.07
23165, 0.64, -0.35, 0.71, 0.49, -0.42, 0.07
23166, 0.65, -0.34, 0.71, 0.35, 0.28, 0.14
23167, 0.64, -0.34, 0.71, -0.07, -0.14, 0.00
23168, 0.64, -0.34, 0.71, 0.56, 0.00, 0.14
23169, 0.64, -0.35, 0.71, 0.28, 0.07, 0.14
23170, 0.64, -0.34, 0.71, 0.70, 0.07, 0.42
23171, 0.64, -0.34, 0.71, 0.35, -0.35, 0.07
23172, 0.64, -0.34, 0.71, 0.14, -0.35, 0.00
23173, 0.64, -0.34, 0.71, 0.77, -0.42, 0.42
23174, 0.64, -0.34, 0.71, -0.07, -0.35, 0.84
23175, 0.64, -0.34, 0.71, 0.42, 0.00, 1.96
23176, 0.64, -0.34, 0.71, 1.12, -1.26, 0.98
23177, 0.64, -0.34, 0.71, 0.84, -1.19, 0.77
23178, 0.64, -0.35, 0.71, 0.70, -1.54, 1.61
23179, 0.63, -0.35, 0.71, 1.19, -2.59, 1.54
23180, 0.64, -0.35, 0.71, 0.98, -2.45, 0.77
23181, 0.64, -0.34, 0.71, -0.28, -2.59, 0.49
23182, 0.64, -0.35, 0.71, 0.14, -2.94, 0.56
23183, 0.64, -0.35, 0.71, 0.28, -3.36, 0.56
23184, 0.64, -0.35, 0.71, 0.21, -2.73, 0.63
23185, 0.64, -0.35, 0.71, 0.91, -2.87, 0.98
23186, 0.64, -0.35, 0.71, 0.14, -2.66, 0.21
23187, 0.64, -0.34, 0.71, -0.28, -2.59, 0.00
23188, 0.64, -0.34, 0.71, -0.07, -2.17, 0.21
23189, 0.65, -0.34, 0.71, -0.49, -2.10, 0.00
23190, 0.65, -0.34, 0.71, -0.63, -1.75, -0.07
23191, 0.64, -0.34, 0.70, -0.07, -1.89, 0.00
23192, 0.65, -0.34, 0.70, -0.14, -1.61, -0.42
23193, 0.65, -0.34, 0.71, -0.28, -1.40, 0.14
23194, 0.64, -0.35, 0.71, -0.42, -1.47, 0.21
23195, 0.65, -0.35, 0.70, -0.28, -1.05, -0.35
23196, 0.65, -0.35, 0.70, 0.14, -1.40, 0.00
23197, 0.64, -0.35, 0.71, -0.14, -1.61, 0.14
23198, 0.64, -0.35, 0.71, 0.00, -1.33, 0.00
23199, 0.64, -0.35, 0.71, 0.00, -1.68, 0.00
23200, 0.64, -0.34, 0.71, -0.35, -1.19, 0.00
23201, 0.64, -0.34, 0.71, -0.21, -1.54, 0.21
23202, 0.65, -0.35, 0.71, -0.14, -1.96, -0.07
23203, 0.65, -0.35, 0.70, -0.28, -1.54, -0.14
23204, 0.65, -0.34, 0.70, -0.21, -1.54, 0.28
23205, 0.65, -0.35, 0.71, -0.28, -1.61, 0.28
23206, 0.64, -0.35, 0.70, 0.00, -1.89, 0.07
23207, 0.65, -0.35, 0.71, -0.35, -1.89, 0.14
23208, 0.65, -0.35, 0.71, 0.14, -2.10, 0.42
23209, 0.65, -0.35, 0.70, 0.00, -1.54, 0.70
23210, 0.65, -0.35, 0.70, 0.07, -2.10, 0.56
23211, 0.65, -0.34, 0.70, 0.14, -1.47, 0.28
23212, 0.65, -0.34, 0.70, 0.63, -1.54, 0.70
23213, 0.65, -0.35, 0.70, 0.56, -1.96, 0.63
23214, 0.65, -0.35, 0.70, 0.35, -1.61, 0.35
23215, 0.65, -0.35, 0.70, 0.14, -1.61, 0.42
23216, 0.65, -0.35, 0.70, 0.14, -1.89, 0.35
23217, 0.65, -0.35, 0.70, -0.42, -1.68, 0.07
23218, 0.65, -0.35, 0.70, 0.07, -1.75, 0.07
23219, 0.65, -0.35, 0.70, 0.21, -2.03, 0.56
23220, 0.65, -0.34, 0.71, 1.19, -0.35, 0.77
23221, 0.65, -0.34, 0.70, 0.21, -0.56, 0.42
23222, 0.65, -0.35, 0.70, -0.14, -0.07, 0.00
23223, 0.65, -0.35, 0.70, 0.28, -0.63, -0.14
23224, 0.65, -0.34, 0.70, 0.49, -0.42, 0.14
23225, 0.65, -0.35, 0.70, 0.14, -0.28, 0.07
23226, 0.65, -0.35, 0.70, 0.56, -0.35, -0.07
23227, 0.64, -0.34, 0.70, 0.49, -0.49, 0.07
23228, 0.65, -0.35, 0.70, 0.70, -0.35, 0.49
23229, 0.65, -0.35, 0.71, 0.42, -0.07, 0.00
23230, 0.64, -0.34, 0.70, 0.35, 0.14, -0.28
23231, 0.65, -0.35, 0.71, 0.07, 0.42, -0.07
23232, 0.64, -0.35, 0.70, -0.35, 0.07, -0.35
23233, 0.65, -0.34, 0.70, -0.07, -0.14, -0.28
23234, 0.64, -0.35, 0.70, 0.28, 0.14, -0.07
23235, 0.64, -0.35, 0.71, 0.42, 0.07, -0.07
23236, 0.64, -0.35, 0.71, 0.56, -0.14, 0.21
23237, 0.64, -0.35, 0.71, 0.28, 0.00, 0.14
23238, 0.64, -0.35, 0.71, 0.56, 0.00, 0.21
23239, 0.64, -0.35, 0.71, 0.84, -0.70, 0.35
23240, 0.64, -0.35, 0.71, 0.42, -0.28, 0.49
23241, 0.64, -0.35, 0.71, 0.49, -0.49, 0.49
23242, 0.64, -0.34, 0.71, 0.77, -0.35, 0.14
23243, 0.64, -0.34, 0.71, 0.49, -0.63, 0.56
23244, 0.64, -0.35, 0.71, 0.56, -0.77, 0.56
23245, 0.64, -0.35, 0.71, 0.63, -0.63, 0.49
23246, 0.64, -0.35, 0.71, 0.56, -0.77, 0.56
23247, 0.64, -0.35, 0.71, 1.26, -1.40, 0.77
23248, 0.64, -0.34, 0.70, 0.98, -0.91, 0.84
23249, 0.64, -0.35, 0.71, 0.98, -1.33, 0.63
23250, 0.64, -0.35, 0.71, 0.91, -1.96, 0.49
23251, 0.64, -0.35, 0.71, 0.77, -1.96, 0.42
23252, 0.64, -0.35, 0.71, 0.70, -2.17, 0.42
23253, 0.64, -0.35, 0.70, 0.42, -2.10, 0.49
23254, 0.64, -0.34, 0.71, 0.42, -2.10, 0.28
23255, 0.65, -0.34, 0.71, -0.14, -1.68, 0.28
23256, 0.64, -0.35, 0.71, -0.14, -1.96, 0.35
23257, 0.64, -0.35, 0.71, -0.28, -1.82, -0.07
23258, 0.64, -0.34, 0.71, 0.00, -2.10, 0.21
23259, 0.65, -0.35, 0.71, -0.21, -2.31, 0.35
23260, 0.64, -0.35, 0.71, 0.00, -2.17, 0.07
23261, 0.64, -0.34, 0.70, -0.14, -2.17, 0.00
23262, 0.65, -0.35, 0.70, -0.49, -1.54, 0.21
23263, 0.65, -0.35, 0.71, 0.07, -1.75, 0.21
23264, 0.64, -0.35, 0.71, -0.35, -1.19, 0.14
23265, 0.64, -0.34, 0.70, 0.00, -1.82, 0.28
23266, 0.65, -0.35, 0.71, 0.28, -1.82, 0.14
23267, 0.64, -0.35, 0.70, -0.14, -1.96, 0.07
23268, 0.65, -0.35, 0.71, 0.00, -1.82, 0.21
23269, 0.64, -0.35, 0.71, 0.14, -1.33, 0.07
23270, 0.65, -0.35, 0.71, -0.14, -1.47, 0.07
23271, 0.64, -0.35, 0.71, -0.49, -1.47, 0.70
23272, 0.64, -0.35, 0.70, 0.00, -2.17, 0.21
23273, 0.64, -0.35, 0.70, 0.14, -1.68, -0.14
23274, 0.65, -0.35, 0.70, 0.56, -2.31, 0.42
23275, 0.65, -0.35, 0.70, 0.28, -1.89, 0.28
23276, 0.64, -0.35, 0.70, -0.07, -1.82, 0.14
23277, 0.65, -0.35, 0.70, -0.21, -1.82, 0.28
23278, 0.65, -0.35, 0.70, 0.07, -1.26, 0.56
23279, 0.64, -0.35, 0.70, -0.07, -1.61, 0.42
23280, 0.65, -0.35, 0.70, 0.00, -1.82, 0.07
23281, 0.65, -0.35, 0.70, 0.07, -1.61, 0.21
23282, 0.65, -0.35, 0.70, 0.35, -2.10, 0.49
23283, 0.65, -0.35, 0.70, 0.28, -1.68, 0.77
23284, 0.65, -0.35, 0.70, -0.28, -1.61, 1.05
23285, 0.64, -0.34, 0.70, -0.14, -2.52, 1.89
23286, 0.65, -0.34, 0.71, 0.00, -2.03, 1.61
23287, 0.65, -0.35, 0.70, 0.07, -1.61, 1.12
23288, 0.64, -0.35, 0.70, -1.26, -2.03, 0.21
23289, 0.65, -0.35, 0.70, 0.00, -1.75, 0.42
23290, 0.65, -0.35, 0.70, 0.14, -1.54, 0.84
23291, 0.65, -0.35, 0.70, -0.28, -1.68, 0.63
23292, 0.65, -0.35, 0.70, 0.28, -1.61, 0.21
23293, 0.65, -0.35, 0.70, 0.63, -0.42, 0.21
23294, 0.65, -0.35, 0.70, 0.63, -0.56, 0.28
23295, 0.65, -0.35, 0.70, -0.28, -0.35, 0.14
23296, 0.65, -0.35, 0.70, 0.28, -0.07, -0.28
23297, 0.65, -0.35, 0.70, 0.21, 0.28, -0.84
23298, 0.64, -0.35, 0.70, -17.92, 0.49, -0.77
23299, 0.65, -0.35, 0.70, 0.14, 0.35, -0.70
23300, 0.65, -0.35, 0.71, -0.07, 0.70, -0.91
23301, 0.65, -0.35, 0.70, -0.21, 0.98, -0.70
23302, 0.65, -0.35, 0.70, -0.07, 1.33, -0.42
23303, 0.64, -0.35, 0.70, -0.07, 1.05, -0.84
23304, 0.64, -0.35, 0.70, 0.00, 1.12, -1.19
23305, 0.64, -0.35, 0.71, -0.14, 0.70, -1.05
23306, 0.65, -0.35, 0.71, 0.07, 0.98, -0.56
23307, 0.64, -0.35, 0.71, -17.36, 1.68, -0.56
23308, 0.64, -0.35, 0.71, 0.14, 1.96, -1.40
23309, 0.64, -0.35, 0.70, -0.14, 1.33, -0.77
23310, 0.64, -0.35, 0.71, 0.14, 0.91, 0.00
23311, 0.64, -0.35, 0.71, 0.84, 0.35, 0.00
23312, 0.64, -0.35, 0.71, 1.33, 0.21, 0.21
23313, 0.64, -0.35, 0.71, 1.40, 0.21, 0.28
23314, 0.64, -0.35, 0.71, 1.33, 0.14, 0.14
23315, 0.64, -0.35, 0.71, 0.63, 0.56, 0.00
23316, 0.64, -0.35, 0.71, 0.77, 0.21, -0.21
23317, 0.64, -0.35, 0.71, 0.35, 0.28, 0.07
23318, 0.64, -0.35, 0.71, 0.07, 0.14, 0.07
23319, 0.64, -0.35, 0.71, 0.35, 0.14, -0.07
23320, 0.64, -0.35, 0.71, 0.98, -0.35, 0.28
23321, 0.64, -0.35, 0.71, 0.49, 17.85, 0.35
23322, 0.64, -0.34, 0.71, 1.19, -0.14, 0.35
23323, 0.64, -0.34, 0.72, 0.35, 0.00, 0.14
23324, 0.63, -0.34, 0.71, 0.28, 0.07, 0.42
23325, 0.63, -0.35, 0.71, 0.91, -0.49, 0.56
23326, 0.63, -0.35, 0.71, 0.63, -1.05, 0.28
23327, 0.63, -0.35, 0.72, 0.35, -1.47, 0.21
23328, 0.63, -0.35, 0.72, 0.42, -1.82, 0.49
23329, 0.63, -0.35, 0.72, 0.28, -2.10, 0.70
23330, 0.63, -0.35, 0.71, 0.21, -2.17, 0.63
23331, 0.63, -0.35, 0.72, 0.00, -2.31, 0.63
23332, 0.64, -0.35, 0.71, 0.21, -2.45, 0.70
23333, 0.64, -0.35, 0.71, -0.14, -2.24, 0.49
23334, 0.64, -0.35, 0.71, -17.85, -2.80, 0.49
23335, 0.64, -0.34, 0.71, -0.28, -2.52, 0.21
23336, 0.64, -0.35, 0.71, -0.49, -2.73, 0.35
23337, 0.64, -0.35, 0.71, -0.07, -2.94, 0.77
23338, 0.64, -0.35, 0.71, 0.00, -2.94, 0.49
23339, 0.64, -0.35, 0.71, 0.14, -2.59, 0.42
23340, 0.64, -0.35, 0.71, 0.35, -3.22, 0.70
23341, 0.64, -0.35, 0.71, 0.21, -2.59, 0.49
23342, 0.64, -0.34, 0.70, 0.35, -2.31, 0.28
23343, 0.64, -0.35, 0.71, 0.49, -2.59, 0.07
23344, 0.65, -0.35, 0.71, 0.07, -2.31, -0.14
23345, 0.64, -0.35, 0.71, -0.07, -2.38, 0.14
23346, 0.64, -0.35, 0.71, 0.42, -2.52, 0.21
23347, 0.64, -0.35, 0.70, -0.07, -2.24, 0.14
23348, 0.64, -0.35, 0.71, 0.21, -2.80, 0.35
23349, 0.64, -0.35, 0.71, 0.21, -2.10, 0.49
23350, 0.64, -0.35, 0.71, 0.49, -1.68, -0.35
23351, 0.64, -0.35, 0.70, 0.84, -1.96, 0.21
23352, 0.64, -0.35, 0.71, 1.05, -1.82, 0.42
23353, 0.65, -0.35, 0.71, 0.63, -2.10, 0.35
23354, 0.64, -0.35, 0.71, 0.56, -2.03, 0.00
23355, 0.64, -0.35, 0.70, 0.21, -1.19, 0.56
23356, 0.64, -0.35, 0.71, 0.49, -2.10, 0.77
23357, 0.65, -0.35, 0.71, 0.28, -1.68, 0.35
23358, 0.64, -0.35, 0.71, 0.28, -2.10, 0.00
23359, 0.65, -0.35, 0.71, -0.14, -1.47, -0.35
23360, 0.64, -0.35, 0.71, -0.14, -1.19, -0.42
23361, 0.64, -0.35, 0.70, -0.07, -1.96, 0.14
23362, 0.64, -0.35, 0.70, 0.00, -1.89, -0.07
23363, 0.65, -0.35, 0.70, 0.21, -2.45, 0.28
23364, 0.65, -0.35, 0.70, 0.77, -2.45, 1.05
23365, 0.65, -0.35, 0.70, 1.05, -2.24, 0.91
23366, 0.64, -0.35, 0.70, 0.70, -2.59, 0.42
23367, 0.65, -0.34, 0.70, 0.49, -2.31, 0.42
23368, 0.64, -0.35, 0.70, 0.70, -2.38, 0.77
23369, 0.65, -0.35, 0.70, 0.35, -1.96, 0.63
23370, 0.65, -0.35, 0.71, 0.77, -1.54, 0.42
23371, 0.65, -0.34, 0.71, 1.61, 0.07, 0.91
23372, 0.65, -0.35, 0.70, 0.35, -0.35, 0.77
23373, 0.64, -0.35, 0.70, 0.42, -0.91, 0.42
23374, 0.65, -0.35, 0.70, 0.49, -1.12, 0.28
23375, 0.65, -0.35, 0.71, 0.56, -0.91, 0.42
23376, 0.65, -0.34, 0.70, 0.56, -0.35, 0.49
23377, 0.65, -0.35, 0.70, 0.84, 0.00, 0.49
23378, 0.65, -0.35, 0.70, 1.12, -0.35, 0.49
23379, 0.65, -0.35, 0.70, 0.98, -0.56, 0.14
23380, 0.65, -0.35, 0.71, 0.63, 0.00, 0.49
23381, 0.64, -0.35, 0.71, 0.49, -0.14, 0.42
23382, 0.64, -0.35, 0.70, 0.70, -0.21, -0.14
23383, 0.65, -0.35, 0.70, 0.63, 0.00, 0.07
23384, 0.65, -0.35, 0.71, 0.70, 0.35, 0.00
23385, 0.64, -0.35, 0.70, 0.70, -0.42, -0.07
23386, 0.64, -0.34, 0.70, 0.70, -0.63, 0.28
23387, 0.65, -0.35, 0.71, 0.49, -0.14, 0.35
23388, 0.64, -0.35, 0.71, 1.12, 0.07, 0.21
23389, 0.64, -0.34, 0.71, 0.35, -0.21, -0.28
23390, 0.65, -0.34, 0.71, -0.07, 0.84, -0.49
23391, 0.65, -0.34, 0.71, 0.14, 1.47, -1.12
23392, 0.64, -0.35, 0.71, 1.26, 0.98, -2.45
23393, 0.64, -0.35, 0.70, 1.61, 1.33, -4.06
23394, 0.64, -0.35, 0.70, 0.35, 1.26, -3.64
23395, 0.64, -0.35, 0.71, 0.21, -0.14, -1.33
23396, 0.64, -0.34, 0.71, 0.63, -0.28, 0.77
23397, 0.63, -0.34, 0.71, 1.82, -1.40, 0.14
23398, 0.63, -0.35, 0.71, 1.61, -2.45, -0.21
23399, 0.64, -0.34, 0.71, 1.26, -3.15, 0.42
23400, 0.64, -0.34, 0.72, 1.89, -3.64, 0.42
23401, 0.64, -0.34, 0.71, 0.21, -3.57, 0.14
23402, 0.64, -0.33, 0.71, -0.14, -3.15, -0.35
23403, 0.64, -0.34, 0.71, 0.98, -4.13, -0.21
23404, 0.64, -0.35, 0.71, 2.03, -5.11, 0.21
23405, 0.64, -0.35, 0.71, 4.76, -6.02, 1.12
23406, 0.65, -0.33, 0.71, 2.52, -6.44, 2.59
23407, 0.65, -0.33, 0.71, 2.24, -4.20, 2.80
23408, 0.64, -0.34, 0.71, 2.94, -5.39, 2.94
23409, 0.65, -0.33, 0.71, 2.31, -3.43, 1.75
23410, 0.66, -0.33, 0.71, 0.91, -2.87, 0.35
23411, 0.65, -0.33, 0.71, 0.28, -2.38, -0.21
23412, 0.65, -0.34, 0.70, -0.35, -1.82, -0.28
23413, 0.66, -0.34, 0.71, 0.00, -1.19, -0.63
23414, 0.65, -0.34, 0.70, -0.28, -0.56, -0.84
23415, 0.65, -0.34, 0.70, 0.63, -2.10, 1.05
23416, 0.66, -0.35, 0.70, 1.47, -3.92, 3.50
23417, 0.63, -0.35, 0.70, 3.08, -8.68, 7.77
23418, 0.65, -0.32, 0.72, 1.47, -6.79, 7.07
23419, 0.65, -0.32, 0.71, 1.89, -4.69, 4.27
23420, 0.65, -0.35, 0.70, 0.91, -6.37, 2.31
23421, 0.66, -0.34, 0.69, -1.12, -3.01, -0.21
23422, 0.65, -0.34, 0.69, -0.14, -2.94, -0.14
23423, 0.67, -0.34, 0.70, -0.56, -1.96, -0.63
23424, 0.67, -0.35, 0.69, -2.03, -0.21, -0.98
23425, 0.66, -0.35, 0.69, -1.82, -0.91, 0.63
23426, 0.66, -0.34, 0.70, -1.75, -0.14, 0.77
23427, 0.66, -0.35, 0.69, 0.00, -1.40, 0.91
23428, 0.66, -0.35, 0.69, 0.14, -0.98, 0.63
23429, 0.67, -0.34, 0.69, 0.35, 0.14, -0.98
23430, 0.66, -0.34, 0.70, -0.42, -0.07, -1.40
23431, 0.66, -0.34, 0.70, -0.14, 1.54, -1.33
23432, 0.66, -0.34, 0.70, -1.54, 1.89, -1.12
23433, 0.65, -0.34, 0.69, -1.82, 2.24, -0.77
23434, 0.65, -0.34, 0.70, -1.19, 1.89, -1.26
23435, 0.65, -0.35, 0.70, -0.56, 1.68, -0.98
23436, 0.65, -0.34, 0.70, 0.00, 1.89, -0.91
23437, 0.65, -0.34, 0.70, 0.00, 0.63, -0.91
23438, 0.65, -0.34, 0.70, -0.21, 1.05, -0.91
23439, 0.65, -0.34, 0.70, 0.00, 0.98, -0.63
23440, 0.65, -0.35, 0.70, 0.28, 0.70, -0.35
23441, 0.65, -0.34, 0.70, 0.35, 0.56, -0.07
23442, 0.65, -0.34, 0.70, 0.35, 0.77, -0.70
23443, 0.65, -0.35, 0.71, 1.12, 0.07, -0.84
23444, 0.65, -0.34, 0.71, 17.78, 0.70, -0.42
23445, 0.65, -0.34, 0.71, 0.56, 0.49, -0.98
23446, 0.65, -0.33, 0.71, 0.56, 1.12, -1.26
23447, 0.65, -0.34, 0.71, 0.49, 1.75, -2.10
23448, 0.65, -0.35, 0.70, 1.19, 1.89, -3.43
23449, 0.65, -0.34, 0.70, 0.77, 3.08, -2.45
23450, 0.64, -0.34, 0.71, 0.35, 1.33, -0.84
23451, 0.65, -0.33, 0.71, 0.84, 1.54, -0.28
23452, 0.64, -0.33, 0.71, 1.26, 0.91, 0.21
23453, 0.64, -0.33, 0.71, 1.75, 0.35, 0.28
23454, 0.64, -0.33, 0.71, 2.59, -0.07, 0.84
23455, 0.64, -0.33, 0.72, 3.29, -1.54, 1.75
23456, 0.64, -0.33, 0.72, 2.59, -1.54, 1.82
23457, 0.64, -0.33, 0.71, 2.38, -1.89, 2.03
23458, 0.64, -0.34, 0.71, 1.89, -2.10, 1.75
23459, 0.64, -0.34, 0.71, 2.10, -2.80, 1.61
23460, 0.64, -0.34, 0.72, 1.47, -2.52, 1.68
23461, 0.64, -0.34, 0.71, 0.21, -2.52, 1.12
23462, 0.64, -0.33, 0.71, -0.07, -3.36, 0.84
23463, 0.65, -0.34, 0.71, -0.14, -3.64, 0.84
23464, 0.65, -0.34, 0.71, -0.07, -3.22, 0.91
23465, 0.64, -0.34, 0.71, 0.14, -3.71, 0.84
23466, 0.65, -0.34, 0.71, -0.14, -3.22, 0.56
23467, 0.65, -0.34, 0.71, 0.63, -3.36, 0.49
23468, 0.65, -0.34, 0.71, 0.14, -2.66, -0.07
23469, 0.65, -0.33, 0.71, -0.14, -2.66, 0.21
23470, 0.65, -0.33, 0.71, 0.49, -2.73, 0.42
23471, 0.65, -0.34, 0.71, 0.28, -2.31, 0.35
23472, 0.65, -0.34, 0.70, 0.84, -2.80, 0.35
23473, 0.65, -0.34, 0.71, -0.14, -1.96, 0.00
23474, 0.65, -0.33, 0.70, 0.00, -1.68, -0.21
23475, 0.65, -0.34, 0.70, -0.21, -0.98, -0.07
23476, 0.65, -0.34, 0.71, -0.14, -1.40, -0.07
23477, 0.65, -0.34, 0.71, -0.28, -1.33, -0.42
23478, 0.65, -0.33, 0.70, -0.28, -1.05, -0.42
23479, 0.65, -0.34, 0.71, 0.14, -1.61, 0.21
23480, 0.65, -0.34, 0.71, -17.92, -1.54, -0.14
23481, 0.65, -0.33, 0.71, -0.14, -1.33, -0.21
23482, 0.65, -0.33, 0.70, -0.28, -1.33, -0.14
23483, 0.65, -0.34, 0.71, -0.21, -1.61, 0.07
23484, 0.65, -0.34, 0.71, -0.35, -1.26, -0.07
23485, 0.65, -0.34, 0.71, 0.14, -1.82, 0.21
23486, 0.65, -0.34, 0.71, 0.56, -1.47, 0.28
23487, 0.65, -0.34, 0.70, 0.91, -1.68, 0.56
23488, 0.65, -0.34, 0.70, 0.42, -1.82, 0.28
23489, 0.65, -0.33, 0.70, 0.35, -1.75, 0.21
23490, 0.65, -0.34, 0.71, 0.63, -1.61, 0.14
23491, 0.65, -0.34, 0.71, 0.21, -1.33, 0.49
23492, 0.65, -0.34, 0.70, 0.42, -1.61, 0.28
23493, 0.65, -0.34, 0.70, 0.49, -1.75, 0.28
23494, 0.65, -0.34, 0.70, 0.56, -1.89, 0.70
23495, 0.65, -0.34, 0.71, 0.98, -1.40, 0.77
23496, 0.66, -0.33, 0.70, 1.96, -0.21, 0.98
23497, 0.66, -0.34, 0.70, 0.56, -0.35, 0.77
23498, 0.65, -0.34, 0.70, 0.77, -0.42, 0.70
23499, 0.65, -0.34, 0.71, 0.42, -0.35, 0.07
23500, 0.66, -0.33, 0.70, 0.21, -0.49, -0.14
23501, 0.65, -0.34, 0.70, 0.42, -0.49, 0.21
23502, 0.65, -0.33, 0.70, 0.14, -0.56, 0.14
23503, 0.65, -0.34, 0.70, 0.70, -0.49, 0.28
23504, 0.65, -0.34, 0.70, 0.77, 0.00, 0.28
23505, 0.65, -0.33, 0.70, 0.98, 0.07, 0.35
23506, 0.65, -0.33, 0.71, 0.56, 0.28, 0.14
23507, 0.65, -0.34, 0.71, -0.21, 0.28, 0.00
23508, 0.65, -0.33, 0.71, 0.14, 0.56, -0.21
23509, 0.65, -0.34, 0.71, 0.21, 0.07, -0.35
23510, 0.65, -0.34, 0.71, 0.91, -0.42, -0.21
23511, 0.66, -0.32, 0.71, 1.82, 0.42, 0.21
23512, 0.63, -0.34, 0.70, 4.34, -1.26, 0.56
23513, 0.61, -0.37, 0.70, 6.51, -7.70, 0.77
23514, 0.66, -0.35, 0.72, 5.81, -6.44, -0.63
23515, 0.68, -0.31, 0.72, 1.75, 1.05, -2.59
23516, 0.65, -0.32, 0.70, -0.56, 0.98, -0.84
23517, 0.65, -0.32, 0.70, -2.31, 2.31, -1.26
23518, 0.65, -0.33, 0.70, -2.45, 1.33, -1.19
23519, 0.66, -0.33, 0.71, -2.38, 2.52, -2.17
23520, 0.66, -0.33, 0.71, -1.82, 3.08, -2.52
23521, 0.65, -0.32, 0.71, -2.10, 4.06, -1.75
23522, 0.64, -0.33, 0.70, -1.19, 3.71, -0.49
23523, 0.64, -0.34, 0.71, 0.70, 2.52, 0.00
23524, 0.64, -0.33, 0.71, 0.91, 2.45, -0.28
23525, 0.63, -0.33, 0.72, 1.26, 0.98, 0.07
23526, 0.64, -0.33, 0.72, 0.49, 0.91, -0.35
23527, 0.64, -0.33, 0.72, -0.70, 1.12, -0.49
23528, 0.64, -0.33, 0.72, -1.12, 0.70, -0.63
23529, 0.63, -0.34, 0.72, -1.54, 0.49, -0.77
23530, 0.63, -0.33, 0.72, -0.77, -0.91, -0.98
23531, 0.64, -0.34, 0.72, -0.77, -2.10, -0.91
23532, 0.64, -0.33, 0.72, -0.14, -1.96, -0.63
23533, 0.64, -0.33, 0.72, -0.28, -2.52, 0.21
23534, 0.64, -0.33, 0.72, -0.07, -2.52, 0.49
23535, 0.64, -0.33, 0.72, -0.35, -1.89, 0.56
23536, 0.64, -0.33, 0.71, 0.07, -2.73, 0.56
23537, 0.64, -0.33, 0.72, 0.84, -3.57, 0.63
23538, 0.65, -0.33, 0.72, -0.98, -2.17, 0.07
23539, 0.64, -0.33, 0.72, -0.35, -1.61, -0.56
23540, 0.64, -0.33, 0.71, 0.07, -3.22, -0.42
23541, 0.65, -0.33, 0.72, 0.70, -2.31, -0.56
23542, 0.65, -0.33, 0.71, 1.33, -2.52, -0.14
23543, 0.65, -0.33, 0.71, 1.26, -2.45, 0.07
23544, 0.65, -0.33, 0.71, 0.98, -1.89, 1.12
23545, 0.64, -0.33, 0.71, 1.61, -2.73, 1.75
23546, 0.65, -0.33, 0.72, 1.40, -1.89, 1.12
23547, 0.64, -0.33, 0.71, 0.42, -2.03, 0.49
23548, 0.65, -0.33, 0.72, 0.35, -1.96, -0.07
23549, 0.65, -0.33, 0.72, -0.21, -0.49, -0.42
23550, 0.64, -0.33, 0.71, 0.28, -1.19, -0.21
23551, 0.64, -0.33, 0.71, -0.35, -1.61, -0.21
23552, 0.65, -0.33, 0.71, 0.28, -2.17, 0.21
23553, 0.65, -0.33, 0.71, 0.35, -2.31, 0.63
23554, 0.65, -0.33, 0.71, 0.56, -2.52, 0.77
23555, 0.64, -0.33, 0.71, 0.63, -2.73, 0.56
23556, 0.64, -0.33, 0.71, 0.14, -2.45, 0.49
23557, 0.65, -0.33, 0.71, 0.14, -2.17, 0.56
23558, 0.65, -0.33, 0.71, 0.14, -2.59, 0.21
23559, 0.65, -0.33, 0.71, 0.28, -2.31, -0.07
23560, 0.65, -0.33, 0.71, 0.21, -2.59, 0.42
23561, 0.65, -0.33, 0.71, 0.35, -2.38, 0.63
23562, 0.65, -0.33, 0.72, 0.70, -2.45, 0.56
23563, 0.66, -0.32, 0.71, 1.82, -0.14, 1.12
23564, 0.65, -0.33, 0.71, 0.63, -0.63, 1.05
23565, 0.65, -0.33, 0.71, 0.56, -0.49, 0.49
23566, 0.65, -0.33, 0.71, 1.05, -0.84, 0.28
23567, 0.65, -0.33, 0.71, 0.77, -0.91, 0.49
23568, 0.65, -0.33, 0.71, 1.19, -0.77, 0.77
23569, 0.65, -0.33, 0.71, 0.42, -0.49, 0.77
23570, 0.65, -0.33, 0.71, 0.77, -0.21, 0.35
23571, 0.65, -0.33, 0.71, 0.42, -0.28, 0.28
23572, 0.65, -0.33, 0.71, 0.63, -0.49, 0.35
23573, 0.65, -0.33, 0.71, 0.98, -0.35, 0.42
23574, 0.65, -0.33, 0.71, 0.63, -0.21, 0.21
23575, 0.65, -0.33, 0.71, 0.77, 0.07, 0.00
23576, 0.65, -0.33, 0.71, 0.63, 0.21, 0.00
23577, 0.65, -0.33, 0.72, 0.49, 0.21, -0.07
23578, 0.64, -0.33, 0.71, 0.07, -0.14, -0.21
23579, 0.65, -0.33, 0.71, 0.14, 0.07, 0.07
23580, 0.64, -0.33, 0.71, 0.63, -0.28, 0.28
23581, 0.64, -0.33, 0.71, 0.35, -0.14, 0.07
23582, 0.64, -0.33, 0.72, 0.63, -0.14, 0.28
23583, 0.64, -0.32, 0.71, 0.14, 0.00, 0.21
23584, 0.64, -0.33, 0.71, 0.42, -0.56, 0.35
23585, 0.64, -0.33, 0.72, 0.42, -0.35, 0.42
23586, 0.64, -0.33, 0.72, 1.12, -0.21, 0.42
23587, 0.64, -0.33, 0.71, 1.75, -0.77, 0.56
23588, 0.64, -0.33, 0.72, 1.61, -1.05, 1.05
23589, 0.64, -0.33, 0.71, 1.33, -2.03, 0.77
23590, 0.64, -0.33, 0.72, 1.26, -2.24, 0.77
23591, 0.64, -0.33, 0.72, 1.05, -2.52, 0.84
23592, 0.64, -0.33, 0.72, 0.49, -2.38, 0.63
23593, 0.64, -0.33, 0.72, 0.42, -2.17, 0.63
23594, 0.64, -0.33, 0.71, 0.21, -2.24, 0.56
23595, 0.65, -0.33, 0.72, 0.00, -2.38, 0.21
23596, 0.64, -0.33, 0.72, -0.07, -2.66, 0.00
23597, 0.64, -0.33, 0.71, 0.07, -2.52, 0.21
23598, 0.65, -0.33, 0.71, -0.21, -2.31, 0.28
23599, 0.65, -0.33, 0.71, 0.28, -2.94, 0.28
23600, 0.65, -0.33, 0.71, 0.00, -2.31, 0.35
23601, 0.65, -0.33, 0.71, 0.14, -2.17, 0.21
23602, 0.65, -0.33, 0.71, 0.21, -2.17, -0.07
23603, 0.65, -0.33, 0.71, -0.14, -1.89, 0.21
23604, 0.65, -0.33, 0.71, 0.42, -2.24, 0.56
23605, 0.65, -0.33, 0.71, 0.49, -1.75, 0.35
23606, 0.65, -0.33, 0.71, 0.21, -2.03, 0.14
23607, 0.65, -0.33, 0.71, 0.07, -2.10, 0.21
23608, 0.65, -0.33, 0.71, -17.78, -1.75, 0.21
23609, 0.65, -0.33, 0.71, 0.00, -1.33, 0.00
23610, 0.65, -0.33, 0.71, -0.21, -1.61, 0.07
23611, 0.65, -0.33, 0.71, 0.28, -1.82, 0.07
23612, 0.65, -0.33, 0.71, 0.14, -1.33, 0.00
23613, 0.65, -0.33, 0.71, 0.07, -1.54, 0.00
23614, 0.65, -0.33, 0.71, -0.21, -1.33, 0.00
23615, 0.65, -0.33, 0.71, -0.21, -1.33, -0.14
23616, 0.65, -0.33, 0.71, -0.49, -0.98, 0.00
23617, 0.65, -0.33, 0.71, -0.14, -1.47, 0.21
23618, 0.65, -0.33, 0.71, 0.21, -1.40, -0.07
23619, 0.65, -0.33, 0.71, 0.14, -1.61, 0.00
23620, 0.65, -0.33, 0.71, 0.14, -1.61, 0.35
23621, 0.65, -0.33, 0.71, -0.21, -1.47, 0.14
23622, 0.65, -0.33, 0.71, 0.56, -1.12, 0.07
23623, 0.64, -0.33, 0.71, 0.14, -1.33, 0.28
23624, 0.65, -0.33, 0.71, 0.07, -0.91, 0.21
23625, 0.65, -0.33, 0.71, 0.49, -0.91, 0.28
23626, 0.65, -0.33, 0.71, -0.42, -0.98, -0.14
23627, 0.65, -0.33, 0.71, 0.14, -1.54, 0.21
23628, 0.65, -0.33, 0.71, 0.14, -1.19, 0.14
23629, 0.65, -0.33, 0.71, 0.21, -1.26, -0.07
23630, 0.65, -0.33, 0.71, 0.00, -1.33, 0.00
23631, 0.65, -0.33, 0.71, 0.28, -1.40, 0.00
23632, 0.65, -0.32, 0.71, 1.26, 0.07, 0.70
23633, 0.65, -0.33, 0.71, 0.63, -0.56, 0.49
23634, 0.66, -0.32, 0.70, 0.07, 1.40, -0.07
23635, 0.64, -0.33, 0.71, 1.33, -1.12, 0.21
23636, 0.65, -0.33, 0.71, 0.56, -0.70, 0.28
23637, 0.65, -0.33, 0.71, 0.56, -0.21, 0.21
23638, 0.65, -0.33, 0.71, 0.77, -0.42, 0.21
23639, 0.65, -0.33, 0.71, 0.21, -0.21, 0.00
23640, 0.65, -0.33, 0.71, 0.84, 0.28, 0.07
23641, 0.65, -0.33, 0.71, 0.28, 0.14, -0.14
23642, 0.65, -0.33, 0.71, 0.42, 0.07, -0.07
23643, 0.65, -0.33, 0.71, 0.77, -0.07, 0.14
23644, 0.65, -0.33, 0.71, 0.91, -0.07, 0.00
23645, 0.64, -0.33, 0.71, 0.70, -0.14, 0.14
23646, 0.65, -0.33, 0.72, 0.49, 0.07, 0.21
23647, 0.65, -0.32, 0.71, 0.77, -0.21, 0.14
23648, 0.65, -0.32, 0.72, 0.63, 0.28, 0.14
23649, 0.63, -0.33, 0.71, 0.35, 0.63, 0.35
23650, 0.64, -0.33, 0.71, 1.40, -0.49, 0.07
23651, 0.64, -0.33, 0.71, 0.70, -0.56, 0.14
23652, 0.65, -0.33, 0.72, 0.56, -0.84, 0.28
23653, 0.64, -0.33, 0.72, 0.84, -0.28, 0.28
23654, 0.64, -0.32, 0.72, 0.35, -0.42, 0.28
23655, 0.64, -0.33, 0.72, 0.28, -0.42, 0.42
23656, 0.64, -0.32, 0.72, 0.56, -0.28, 0.35
23657, 0.64, -0.33, 0.71, 0.35, -0.63, 0.35
23658, 0.64, -0.32, 0.72, 0.91, -0.77, 0.49
23659, 0.64, -0.33, 0.71, 1.12, -0.84, 0.63
23660, 0.64, -0.33, 0.72, 1.05, -1.33, 0.70
23661, 0.64, -0.33, 0.72, 0.91, -1.68, 0.56
23662, 0.64, -0.33, 0.72, 1.19, -1.47, 0.63
23663, 0.64, -0.33, 0.72, 0.70, -1.89, 0.63
23664, 0.64, -0.33, 0.72, 0.63, -2.03, 0.35
23665, 0.64, -0.33, 0.72, -0.14, -1.61, 0.14
23666, 0.64, -0.33, 0.72, 0.00, -1.68, -0.21
23667, 0.64, -0.32, 0.72, 0.00, -2.24, -0.21
23668, 0.64, -0.32, 0.72, -0.49, -2.24, -0.14
23669, 0.64, -0.33, 0.72, -0.35, -1.96, -0.07
23670, 0.65, -0.32, 0.71, -0.42, -2.03, -0.21
23671, 0.65, -0.32, 0.72, -0.14, -1.75, -0.07
23672, 0.65, -0.32, 0.72, -0.14, -1.96, 0.07
23673, 0.65, -0.32, 0.71, -0.35, -1.33, -0.07
23674, 0.65, -0.32, 0.72, -0.35, -1.75, 0.00
23675, 0.64, -0.32, 0.71, -0.35, -1.89, -0.07
23676, 0.65, -0.33, 0.72, -0.07, -2.03, 0.14
23677, 0.64, -0.33, 0.72, -0.35, -1.82, 0.07
23678, 0.64, -0.33, 0.71, -0.07, -1.54, 0.21
23679, 0.64, -0.33, 0.71, 0.07, -1.82, 0.14
23680, 0.64, -0.32, 0.72, 0.14, -1.75, 0.14
23681, 0.65, -0.33, 0.71, -0.21, -1.68, 0.42
23682, 0.64, -0.33, 0.71, -0.07, -1.96, 0.07
23683, 0.64, -0.32, 0.71, 0.14, -1.82, 0.14
23684, 0.64, -0.33, 0.71, 0.35, -1.96, 0.14
23685, 0.65, -0.33, 0.71, 0.14, -1.96, 0.21
23686, 0.65, -0.33, 0.71, -0.35, -1.96, 0.07
23687, 0.65, -0.33, 0.71, 0.07, -1.96, 0.07
23688, 0.64, -0.33, 0.71, 0.00, -1.54, 0.21
23689, 0.65, -0.33, 0.71, 0.07, -1.68, 0.28
23690, 0.65, -0.33, 0.71, 0.14, -1.96, 0.21
23691, 0.65, -0.33, 0.71, -0.07, -1.96, 0.35
23692, 0.65, -0.32, 0.71, 0.21, -1.61, 0.42
23693, 0.65, -0.33, 0.71, 0.35, -1.82, 0.49
23694, 0.65, -0.33, 0.71, 0.14, -1.47, 0.21
23695, 0.65, -0.33, 0.71, 0.63, -1.54, 0.49
23696, 0.65, -0.32, 0.71, 0.35, -1.82, 0.35
23697, 0.65, -0.32, 0.71, -0.91, -1.19, 0.49
23698, 0.65, -0.33, 0.71, 0.35, -1.61, 0.35
23699, 0.65, -0.33, 0.71, 0.42, -1.68, 0.21
23700, 0.65, -0.33, 0.71, 0.42, -1.89, 0.56
23701, 0.65, -0.33, 0.71, 0.42, -1.75, 0.42
23702, 0.65, -0.33, 0.71, 0.35, -1.61, 0.35
23703, 0.65, -0.32, 0.72, 1.40, -0.56, 0.77
23704, 0.65, -0.33, 0.71, 0.70, -0.49, 0.42
23705, 0.65, -0.33, 0.71, 0.42, -0.42, 0.56
23706, 0.65, -0.32, 0.71, 0.35, -0.56, 0.28
23707, 0.65, -0.32, 0.72, 0.63, -0.63, 0.07
23708, 0.65, -0.32, 0.71, 0.56, -0.42, 0.14
23709, 0.65, -0.33, 0.71, 0.28, -0.35, 0.14
23710, 0.65, -0.33, 0.71, 0.70, -0.42, 0.14
23711, 0.65, -0.33, 0.71, 0.63, -0.14, 0.14
23712, 0.65, -0.33, 0.71, 1.26, -0.28, 0.21
23713, 0.65, -0.32, 0.71, 0.42, 0.35, 0.35
23714, 0.64, -0.33, 0.71, 0.21, 0.07, 0.14
23715, 0.65, -0.33, 0.71, 0.56, 0.21, -0.28
23716, 0.65, -0.33, 0.71, 0.77, -0.21, 0.07
23717, 0.65, -0.33, 0.72, 0.84, -0.49, 0.35
23718, 0.66, -0.32, 0.71, 0.28, 2.03, 0.07
23719, 0.64, -0.32, 0.71, 1.26, -0.77, 0.28
23720, 0.64, -0.33, 0.72, 0.35, -0.28, 0.35
23721, 0.65, -0.32, 0.72, 0.70, -0.49, 0.28
23722, 0.64, -0.33, 0.72, 0.42, -0.28, 0.00
23723, 0.64, -0.32, 0.72, 0.49, -0.77, 0.21
23724, 0.65, -0.32, 0.72, 0.70, -1.19, 0.28
23725, 0.64, -0.32, 0.72, 0.77, -0.49, 0.49
23726, 0.64, -0.33, 0.72, 0.56, -0.91, 0.49
23727, 0.64, -0.32, 0.72, 0.42, -0.70, 0.56
23728, 0.64, -0.32, 0.71, 0.77, -0.98, 0.35
23729, 0.64, -0.32, 0.72, 0.63, -0.91, 0.63
23730, 0.64, -0.33, 0.72, 0.49, -0.84, 0.91
23731, 0.64, -0.32, 0.72, 1.12, -0.98, 0.77
23732, 0.64, -0.33, 0.72, 0.98, -1.54, 0.49
23733, 0.64, -0.33, 0.72, 1.33, -1.75, 0.70
23734, 0.64, -0.33, 0.72, 1.12, -1.68, 0.63
23735, 0.64, -0.33, 0.72, 0.77, -2.03, 0.28
23736, 0.64, -0.33, 0.72, 0.07, -1.54, 0.21
23737, 0.64, -0.33, 0.72, 0.00, -2.17, 0.35
23738, 0.64, -0.33, 0.72, -0.28, -1.96, 0.14
23739, 0.64, -0.32, 0.72, -0.07, -1.82, -0.14
23740, 0.64, -0.32, 0.72, 0.28, -2.24, 0.07
23741, 0.65, -0.32, 0.72, 0.07, -2.38, 0.00
23742, 0.65, -0.32, 0.72, -0.42, -2.24, -0.14
23743, 0.64, -0.32, 0.71, -0.14, -1.96, 0.00
23744, 0.65, -0.32, 0.71, -0.14, -1.75, -0.21
23745, 0.65, -0.32, 0.72, 0.00, -1.96, 0.07
23746, 0.65, -0.33, 0.72, -0.35, -1.68, 0.00
23747, 0.65, -0.32, 0.72, -0.49, -0.98, -0.21
23748, 0.64, -0.32, 0.71, -0.35, -1.19, -0.07
23749, 0.65, -0.33, 0.72, -0.14, -1.89, 0.14
23750, 0.65, -0.32, 0.71, 0.07, -2.03, 0.14
23751, 0.64, -0.32, 0.71, 0.00, -2.31, 0.07
23752, 0.65, -0.32, 0.71, 0.00, -1.82, 0.00
23753, 0.65, -0.33, 0.71, 0.07, -1.82, 0.28
23754, 0.65, -0.32, 0.72, -17.92, -1.61, 0.21
23755, 0.65, -0.32, 0.71, -0.14, -1.82, 0.00
23756, 0.65, -0.32, 0.72, 0.07, -2.03, 0.07
23757, 0.65, -0.33, 0.72, 0.49, -2.10, 0.14
23758, 0.65, -0.32, 0.72, 0.07, -1.75, 0.21
23759, 0.65, -0.32, 0.71, -0.07, -1.68, 0.14
23760, 0.65, -0.32, 0.71, -0.07, -1.47, 0.07
23761, 0.65, -0.32, 0.71, 0.14, -1.68, 0.28
23762, 0.65, -0.33, 0.71, -0.07, -1.68, 0.42
23763, 0.65, -0.33, 0.71, 0.42, -1.33, 0.14
23764, 0.65, -0.32, 0.71, 0.00, -1.61, 0.07
23765, 0.65, -0.33, 0.71, 0.21, -1.68, 0.42
23766, 0.65, -0.33, 0.71, 0.49, -1.61, 0.49
23767, 0.65, -0.33, 0.71, -0.14, -1.40, 0.07
23768, 0.65, -0.32, 0.71, 0.00, -1.26, 0.21
23769, 0.65, -0.33, 0.71, -0.14, -1.47, 0.28
23770, 0.65, -0.33, 0.71, 0.00, -1.47, -0.07
23771, 0.65, -0.32, 0.71, 0.07, -1.75, 0.00
23772, 0.65, -0.32, 0.71, 0.63, -1.54, 0.00
23773, 0.65, -0.33, 0.71, 0.00, -1.33, 0.35
23774, 0.65, -0.33, 0.71, 0.00, -1.47, 0.28
23775, 0.65, -0.33, 0.71, 0.35, -1.19, 0.21
23776, 0.65, -0.32, 0.71, 1.54, 0.00, 0.56
23777, 0.66, -0.32, 0.71, 0.56, -0.35, 0.35
23778, 0.65, -0.33, 0.71, 0.21, -0.07, 0.49
23779, 0.65, -0.32, 0.71, 0.63, -0.07, 0.00
23780, 0.65, -0.32, 0.71, 0.14, -0.35, 0.00
23781, 0.65, -0.32, 0.71, 0.63, -0.42, 0.21
23782, 0.65, -0.33, 0.71, 0.63, -0.42, 0.28
23783, 0.65, -0.32, 0.71, 0.91, 0.21, 0.28
23784, 0.65, -0.32, 0.71, 0.63, 0.00, 0.14
23785, 0.65, -0.33, 0.71, 0.77, -0.07, 0.35
23786, 0.65, -0.32, 0.72, 0.77, 0.00, 0.07
23787, 0.64, -0.32, 0.71, 0.70, -0.42, 0.00
23788, 0.64, -0.33, 0.72, 0.63, -0.56, 0.21
23789, 0.65, -0.33, 0.72, 0.84, -0.35, 0.28
23790, 0.65, -0.32, 0.72, 0.56, 0.00, 0.00
23791, 0.64, -0.33, 0.72, 0.49, -0.14, 0.07
23792, 0.64, -0.32, 0.72, 0.42, -0.28, 0.35
23793, 0.65, -0.32, 0.72, 0.42, -0.56, 0.00
23794, 0.65, -0.33, 0.72, 0.00, -0.21, 0.21
23795, 0.65, -0.32, 0.72, 0.70, -0.56, 0.35
23796, 0.64, -0.32, 0.72, 0.56, -0.28, 0.21
23797, 0.64, -0.33, 0.72, 0.70, -0.91, 0.56
23798, 0.64, -0.33, 0.72, 0.77, -0.70, 0.63
23799, 0.64, -0.32, 0.72, 0.63, -0.63, 0.42
23800, 0.64, -0.32, 0.72, 0.49, -0.28, 0.28
23801, 0.64, -0.32, 0.71, 0.63, -0.49, 0.63
23802, 0.64, -0.32, 0.72, 0.91, -0.84, 0.63
23803, 0.64, -0.33, 0.71, 0.91, -0.91, 0.35
23804, 0.64, -0.33, 0.72, 0.91, -1.19, 0.49
23805, 0.64, -0.33, 0.72, 1.19, -1.61, 0.35
23806, 0.64, -0.32, 0.72, 0.91, -2.03, 0.56
23807, 0.64, -0.32, 0.72, 0.35, -1.89, 0.70
23808, 0.64, -0.32, 0.72, 0.35, -1.61, 0.21
23809, 0.64, -0.32, 0.72, 0.07, -1.82, 0.07
23810, 0.64, -0.33, 0.72, -0.42, -1.61, 0.28
23811, 0.64, -0.32, 0.72, -0.42, -1.68, -0.07
23812, 0.64, -0.32, 0.71, -0.49, -1.61, -0.35
23813, 0.64, -0.32, 0.72, -0.14, -2.31, -0.07
23814, 0.64, -0.32, 0.72, -0.21, -2.31, -0.07
23815, 0.65, -0.32, 0.72, -0.42, -2.17, -0.21
23816, 0.65, -0.32, 0.71, -0.28, -2.24, -0.21
23817, 0.64, -0.32, 0.72, 0.28, -1.82, 0.21
23818, 0.65, -0.32, 0.72, -0.35, -1.40, 0.00
23819, 0.64, -0.32, 0.71, -0.49, -1.75, -0.14
23820, 0.65, -0.32, 0.72, -0.14, -2.10, 0.07
23821, 0.65, -0.32, 0.72, 0.00, -2.03, 0.07
23822, 0.65, -0.32, 0.72, -0.14, -1.82, 0.21
23823, 0.65, -0.32, 0.72, 0.00, -2.38, 0.84
23824, 0.64, -0.32, 0.72, 0.00, -2.59, 0.70
23825, 0.65, -0.32, 0.72, -0.21, -2.38, 0.28
23826, 0.65, -0.33, 0.71, -1.05, -1.68, 0.28
23827, 0.64, -0.33, 0.71, -0.49, -1.96, 17.85
23828, 0.64, -0.32, 0.71, -0.56, -1.89, -0.28
23829, 0.65, -0.33, 0.71, -0.49, -2.52, -0.07
23830, 0.65, -0.33, 0.71, 0.00, -2.31, 0.28
23831, 0.65, -0.33, 0.71, 0.14, -2.10, 0.56
23832, 0.68, -0.33, 0.71, 1.61, 1.68, 0.42
23833, 0.64, -0.32, 0.71, 0.42, -2.73, 0.70
23834, 0.65, -0.32, 0.71, -0.35, -1.68, 0.28
23835, 0.65, -0.33, 0.71, 0.28, -1.68, 0.35
23836, 0.65, -0.33, 0.71, 0.56, -2.03, 0.28
23837, 0.65, -0.32, 0.71, 0.07, -2.10, 0.21
23838, 0.65, -0.33, 0.71, 0.14, -1.61, -0.42
23839, 0.66, -0.31, 0.72, 1.40, 0.14, -0.42
23840, 0.64, -0.33, 0.72, 6.02, -3.43, -2.87
23841, 0.67, -0.34, 0.70, 0.63, -2.31, -6.02
23842, 0.66, -0.32, 0.71, -4.62, 3.99, -6.02
23843, 0.64, -0.34, 0.71, 0.70, -1.89, -3.57
23844, 0.66, -0.32, 0.71, 0.14, -1.75, -3.50
23845, 0.65, -0.32, 0.70, 1.82, -1.54, -1.89
23846, 0.65, -0.32, 0.72, 3.85, -3.57, 1.61
23847, 0.66, -0.30, 0.72, 4.97, -0.42, 2.24
23848, 0.65, -0.30, 0.71, 3.71, -1.61, 1.96
23849, 0.65, -0.30, 0.72, 2.03, -0.56, 1.33
23850, 0.66, -0.30, 0.72, 0.21, -0.91, 0.49
23851, 0.66, -0.31, 0.71, -1.05, 0.14, -0.56
23852, 0.66, -0.31, 0.71, -0.91, 1.12, -0.35
23853, 0.66, -0.31, 0.71, -0.98, 1.61, -0.07
23854, 0.65, -0.32, 0.71, -0.35, 1.33, 0.07
23855, 0.65, -0.32, 0.71, 0.14, 0.77, 0.70
23856, 0.65, -0.32, 0.71, 1.19, 0.49, 1.26
23857, 0.65, -0.32, 0.72, 1.54, -0.35, 1.26
23858, 0.65, -0.32, 0.72, 1.26, -0.14, 1.12
23859, 0.65, -0.32, 0.72, 1.61, -0.35, 0.84
23860, 0.64, -0.31, 0.72, 1.12, 0.07, 0.49
23861, 0.64, -0.31, 0.72, 0.63, -0.28, 0.42
23862, 0.65, -0.32, 0.72, 0.77, 0.00, 0.28
23863, 0.65, -0.32, 0.72, 0.07, -0.28, 0.07
23864, 0.64, -0.31, 0.72, -0.35, -0.21, 0.07
23865, 0.65, -0.31, 0.72, -0.21, -0.91, 0.07
23866, 0.65, -0.32, 0.72, 0.07, -0.63, 0.14
23867, 0.64, -0.31, 0.72, 0.77, -1.40, 0.63
23868, 0.65, -0.31, 0.72, 1.33, -1.68, 1.26
23869, 0.65, -0.31, 0.72, 1.61, -1.47, 1.19
23870, 0.65, -0.31, 0.72, 0.91, -1.33, 1.12
23871, 0.64, -0.32, 0.72, 0.91, -2.03, 1.54
23872, 0.65, -0.32, 0.72, 0.14, -2.45, 1.54
23873, 0.65, -0.31, 0.72, -0.84, -2.80, 1.68
23874, 0.64, -0.32, 0.72, -0.49, -3.22, 1.33
23875, 0.65, -0.32, 0.71, 0.00, -3.22, 0.63
23876, 0.65, -0.32, 0.71, -0.35, -3.08, 0.63
23877, 0.65, -0.32, 0.72, -1.54, -2.94, 0.84
23878, 0.65, -0.32, 0.71, -2.10, -3.15, 0.49
23879, 0.65, -0.32, 0.71, -3.15, -3.22, -0.49
23880, 0.65, -0.32, 0.71, -2.03, -3.22, -0.28
23881, 0.65, -0.32, 0.71, -1.89, -2.87, -0.35
23882, 0.65, -0.33, 0.71, -0.91, -2.94, -0.49
23883, 0.65, -0.32, 0.71, -1.33, -2.45, -0.35
23884, 0.65, -0.32, 0.71, -0.42, -2.59, 0.07
23885, 0.65, -0.32, 0.71, -0.35, -2.59, 0.28
23886, 0.65, -0.32, 0.71, -0.07, -2.52, 0.84
23887, 0.65, -0.32, 0.71, 0.49, -2.52, 0.98
23888, 0.66, -0.32, 0.71, 0.35, -2.38, 0.35
23889, 0.65, -0.32, 0.71, 0.49, -1.89, 0.56
23890, 0.65, -0.32, 0.71, 0.70, -2.66, 1.26
23891, 0.65, -0.32, 0.71, 0.14, -1.75, 0.70
23892, 0.65, -0.32, 0.71, 0.84, -2.59, 0.70
23893, 0.65, -0.32, 0.71, 0.56, -2.03, 0.77
23894, 0.66, -0.32, 0.71, 0.56, -1.82, 0.70
23895, 0.66, -0.32, 0.71, 0.63, -1.61, 0.35
23896, 0.65, -0.33, 0.70, 0.56, -1.75, 0.56
23897, 0.66, -0.32, 0.71, -0.35, -1.75, 1.33
23898, 0.65, -0.32, 0.71, 0.70, -2.10, 1.19
23899, 0.65, -0.33, 0.71, 0.70, -3.36, 1.47
23900, 0.66, -0.32, 0.71, 0.42, -1.96, 1.05
23901, 0.66, -0.32, 0.71, 0.42, -2.10, 0.98
23902, 0.65, -0.32, 0.70, 1.19, -2.31, 0.98
23903, 0.66, -0.32, 0.71, 0.49, -2.17, 0.63
23904, 0.67, -0.31, 0.71, -0.21, 0.84, -0.42
23905, 0.65, -0.33, 0.70, 0.49, -1.12, 0.14
23906, 0.65, -0.33, 0.69, 0.84, -2.03, -0.21
23907, 0.64, -0.35, 0.71, 4.69, -8.26, 4.20
23908, 0.66, -0.32, 0.74, 3.15, -8.19, 7.70
23909, 0.69, -0.28, 0.73, -5.81, 2.03, 5.11
23910, 0.65, -0.32, 0.69, -4.41, -1.47, 3.78
23911, 0.64, -0.34, 0.70, -4.13, -5.04, 2.03
23912, 0.66, -0.33, 0.70, -3.78, -0.07, -1.54
23913, 0.66, -0.33, 0.70, -3.08, -1.96, -1.54
23914, 0.67, -0.33, 0.70, -2.52, 0.77, -2.52
23915, 0.67, -0.33, 0.69, -3.71, 3.36, -4.13
23916, 0.66, -0.34, 0.69, -2.73, 3.50, -4.27
23917, 0.66, -0.35, 0.69, -1.47, 3.43, -4.20
23918, 0.67, -0.34, 0.70, -1.96, 4.62, -3.64
23919, 0.66, -0.34, 0.70, -0.77, 4.41, -2.24
23920, 0.65, -0.34, 0.70, 0.63, 2.87, -1.40
23921, 0.66, -0.33, 0.71, 0.49, 3.08, -0.70
23922, 0.65, -0.33, 0.71, 1.26, 2.17, -0.35
23923, 0.65, -0.33, 0.71, 0.63, 2.45, 0.42
23924, 0.64, -0.32, 0.72, -0.84, 2.03, 1.33
23925, 0.65, -0.32, 0.72, -1.12, 1.61, 0.84
23926, 0.65, -0.32, 0.72, -2.59, 1.33, -0.63
23927, 0.64, -0.33, 0.72, -2.52, 1.19, -1.68
23928, 0.64, -0.33, 0.72, -1.75, 0.91, -1.82
23929, 0.65, -0.33, 0.71, -2.45, 1.19, -2.31
23930, 0.65, -0.34, 0.71, -2.66, 1.61, -2.66
23931, 0.65, -0.33, 0.71, -2.10, 1.89, -1.68
23932, 0.65, -0.34, 0.71, -0.98, 1.26, -1.12
23933, 0.64, -0.34, 0.71, 0.07, 0.49, -0.49
23934, 0.64, -0.33, 0.71, 0.77, -0.21, 0.28
23935, 0.64, -0.33, 0.71, 1.26, -1.75, 0.91
23936, 0.65, -0.33, 0.72, 0.56, -0.98, 1.05
23937, 0.64, -0.33, 0.72, 0.56, -1.75, 1.61
23938, 0.64, -0.33, 0.72, 0.98, -1.47, 0.98
23939, 0.64, -0.33, 0.72, 0.00, -0.98, 0.35
23940, 0.64, -0.33, 0.72, -0.21, -1.54, 0.63
23941, 0.64, -0.34, 0.72, -1.05, -1.61, 0.56
23942, 0.64, -0.34, 0.71, -0.56, -1.96, 0.28
23943, 0.64, -0.34, 0.71, -0.21, -2.52, 0.63
23944, 0.64, -0.33, 0.72, 0.28, -3.08, 0.70
23945, 0.64, -0.33, 0.71, -0.07, -3.64, 0.70
23946, 0.65, -0.33, 0.71, 0.28, -3.64, 0.91
23947, 0.65, -0.33, 0.72, 0.42, -2.80, 0.84
23948, 0.65, -0.33, 0.71, -0.28, -2.66, 0.56
23949, 0.65, -0.33, 0.71, -0.49, -1.96, 0.63
23950, 0.65, -0.33, 0.71, -0.07, -2.38, 0.21
23951, 0.65, -0.33, 0.71, -0.56, -2.17, 0.21
23952, 0.65, -0.34, 0.71, 0.21, -1.96, 0.42
23953, 0.65, -0.34, 0.71, -0.07, -1.89, 0.35
23954, 0.65, -0.33, 0.71, -0.14, -1.82, 0.35
23955, 0.65, -0.34, 0.71, -0.35, -1.75, 0.49
23956, 0.65, -0.33, 0.71, -0.07, -1.68, 0.35
23957, 0.65, -0.34, 0.71, -0.35, -1.68, 0.35
23958, 0.65, -0.33, 0.71, -0.91, -0.56, -0.21
23959, 0.65, -0.33, 0.71, -0.77, -0.84, 0.91
23960, 0.65, -0.33, 0.71, -0.49, -1.19, 0.21
23961, 0.65, -0.34, 0.71, -0.35, -1.19, -0.63
23962, 0.65, -0.33, 0.71, 0.21, -1.61, -0.07
23963, 0.65, -0.34, 0.70, 0.49, -2.03, 0.14
23964, 0.65, -0.34, 0.71, 0.00, -1.54, 0.28
23965, 0.65, -0.34, 0.71, 0.42, -1.82, 0.00
23966, 0.65, -0.34, 0.71, -0.21, -1.54, 0.42
23967, 0.65, -0.34, 0.71, 0.14, -1.47, 0.49
23968, 0.65, -0.34, 0.71, 0.42, -1.82, 0.28
23969, 0.65, -0.33, 0.71, 0.56, -1.40, 0.28
23970, 0.65, -0.34, 0.71, 0.56, -2.03, 0.56
23971, 0.65, -0.34, 0.71, -0.07, -1.75, 0.35
23972, 0.65, -0.33, 0.71, -0.07, -1.61, 0.07
23973, 0.65, -0.34, 0.71, -0.42, -0.98, 0.00
23974, 0.65, -0.34, 0.70, 0.42, -1.89, 0.21
23975, 0.65, -0.34, 0.71, 0.07, -1.26, 0.28
23976, 0.65, -0.33, 0.70, 0.70, -0.77, 0.49
23977, 0.66, -0.34, 0.71, 0.21, -0.77, 0.35
23978, 0.65, -0.34, 0.70, 0.21, 0.07, 0.21
23979, 0.65, -0.34, 0.71, 0.49, -0.49, 0.07
23980, 0.65, -0.34, 0.71, 0.63, 0.07, -0.07
23981, 0.65, -0.33, 0.71, 0.14, 0.07, -0.07
23982, 0.65, -0.34, 0.71, 0.00, 0.28, 0.14
23983, 0.64, -0.34, 0.71, 0.42, -0.07, 0.00
23984, 0.65, -0.34, 0.71, 0.42, 0.84, -0.14
23985, 0.65, -0.33, 0.70, 0.42, 0.21, 0.00
23986, 0.65, -0.34, 0.71, 0.28, 0.28, -0.07
23987, 0.65, -0.34, 0.71, 0.00, 0.91, -0.35
23988, 0.65, -0.34, 0.71, 0.49, 1.05, -1.12
23989, 0.65, -0.33, 0.71, 0.35, 2.17, -1.54
23990, 0.65, -0.34, 0.71, 0.84, 1.54, -1.96
23991, 0.65, -0.34, 0.71, 0.42, 1.61, -1.89
23992, 0.64, -0.33, 0.71, 1.54, 0.70, -0.63
23993, 0.64, -0.33, 0.72, 1.96, -0.14, -0.21
23994, 0.64, -0.34, 0.71, 2.03, -0.35, -0.07
23995, 0.64, -0.33, 0.71, 2.03, 0.21, 0.35
23996, 0.64, -0.33, 0.72, 2.03, -0.84, 0.77
23997, 0.64, -0.33, 0.72, 1.68, -0.35, 0.77
23998, 0.64, -0.33, 0.72, 0.56, -0.14, 0.42
23999, 0.64, -0.33, 0.71, 0.56, -0.35, 0.28
24000, 0.64, -0.33, 0.71, 0.84, -1.12, 0.49
24001, 0.64, -0.33, 0.72, 0.98, -1.19, 1.05
24002, 0.64, -0.33, 0.71, 1.61, -1.19, 1.05
24003, 0.64, -0.33, 0.72, 1.40, -1.96, 1.12
24004, 0.64, -0.33, 0.71, 1.40, -2.31, 1.19
24005, 0.64, -0.34, 0.72, 0.84, -3.36, 0.91
24006, 0.64, -0.33, 0.72, 0.70, -3.29, 0.56
24007, 0.64, -0.33, 0.72, 0.28, -3.57, 0.84
24008, 0.64, -0.33, 0.71, 0.07, -3.78, 0.49
24009, 0.64, -0.34, 0.71, 0.14, -3.85, 0.35
24010, 0.65, -0.33, 0.71, 0.00, -3.43, 0.00
24011, 0.65, -0.33, 0.71, -0.98, -3.29, -0.07
24012, 0.65, -0.33, 0.71, -0.84, -3.50, -0.14
24013, 0.65, -0.33, 0.71, -0.63, -2.80, 0.07
24014, 0.65, -0.33, 0.71, -0.35, -2.24, -0.42
24015, 0.64, -0.31, 0.76, 3.36, 0.00, -0.98
24016, 0.68, -0.28, 0.74, 1.12, 8.05, -10.43
24017, 0.64, -0.42, 0.69, -6.65, -1.89, -24.01
24018, 0.75, -0.41, 0.66, -8.68, 9.03, -31.50
24019, 0.75, -0.29, 0.70, -7.00, 27.09, -18.27
24020, 0.62, -0.28, 0.70, -3.85, 24.50, -2.03
24021, 0.50, -0.31, 0.71, 2.17, 0.63, 8.54
24022, 0.59, -0.28, 0.75, 1.19, -8.40, 7.84
24023, 0.66, -0.28, 0.73, 3.43, -8.47, 2.94
24024, 0.67, -0.31, 0.73, 4.97, -5.60, 0.77
24025, 0.65, -0.31, 0.73, 5.95, -2.45, 0.98
24026, 0.63, -0.30, 0.73, 4.13, -0.28, 0.07
24027, 0.63, -0.30, 0.73, 0.70, 0.63, -1.33
24028, 0.64, -0.32, 0.73, -1.33, 1.89, -1.68
24029, 0.64, -0.32, 0.73, -1.33, 2.73, -1.05
24030, 0.65, -0.31, 0.72, -1.12, 4.97, -2.66
24031, 0.65, -0.34, 0.71, -1.61, 3.92, -4.06
24032, 0.63, -0.34, 0.71, 0.42, 1.19, -0.56
24033, 0.61, -0.33, 0.71, 2.52, -4.06, 3.99
24034, 0.62, -0.32, 0.73, 4.62, -5.67, 6.37
24035, 0.64, -0.30, 0.74, 4.69, -4.55, 5.81
24036, 0.64, -0.30, 0.74, 3.08, -3.36, 3.92
24037, 0.64, -0.30, 0.73, 0.91, -1.89, 2.03
24038, 0.63, -0.31, 0.73, -0.63, -1.75, 0.35
24039, 0.64, -0.32, 0.73, -1.54, -1.68, -0.77
24040, 0.64, -0.32, 0.72, -1.33, -1.54, -1.54
24041, 0.64, -0.32, 0.73, -1.19, -2.17, -1.19
24042, 0.64, -0.32, 0.72, -0.56, -2.73, -0.63
24043, 0.64, -0.32, 0.72, -0.56, -2.94, 0.42
24044, 0.64, -0.33, 0.72, 0.07, -2.24, 0.98
24045, 0.64, -0.32, 0.72, 0.42, -3.15, 1.12
24046, 0.65, -0.31, 0.73, 0.49, -2.31, 0.84
24047, 0.64, -0.31, 0.72, 1.19, -2.31, 0.84
24048, 0.64, -0.31, 0.73, 0.21, -1.54, 0.35
24049, 0.65, -0.31, 0.73, 1.75, 0.63, 0.63
24050, 0.64, -0.31, 0.72, 0.00, 0.07, -0.21
24051, 0.63, -0.31, 0.72, 0.07, 0.63, -0.21
24052, 0.64, -0.32, 0.72, 0.35, -0.35, -0.07
24053, 0.64, -0.31, 0.73, 0.56, 0.14, 0.21
24054, 0.64, -0.31, 0.72, 0.91, -0.63, 0.42
24055, 0.64, -0.32, 0.72, 1.54, -0.84, 0.42
24056, 0.64, -0.32, 0.72, 1.33, -0.28, 0.77
24057, 0.64, -0.31, 0.72, 1.33, -0.84, 0.70
24058, 0.64, -0.31, 0.73, 1.26, 0.00, 0.49
24059, 0.63, -0.32, 0.73, 0.98, 0.00, 0.35
24060, 0.63, -0.32, 0.72, 0.98, -0.28, 0.28
24061, 0.64, -0.31, 0.73, 1.12, -0.77, 0.21
24062, 0.64, -0.31, 0.73, 1.26, -1.05, 0.21
24063, 0.63, -0.31, 0.72, 1.12, -0.35, 0.07
24064, 0.63, -0.31, 0.72, 1.89, -1.33, 0.21
24065, 0.64, -0.31, 0.73, 1.61, -1.40, 0.77
24066, 0.63, -0.31, 0.73, 1.82, -0.84, 0.91
24067, 0.63, -0.31, 0.72, 1.68, -1.75, 0.21
24068, 0.64, -0.32, 0.73, 0.91, -2.31, -0.21
24069, 0.64, -0.31, 0.73, 0.42, -2.80, -0.14
24070, 0.64, -0.32, 0.73, -0.28, -2.38, -0.21
24071, 0.64, -0.31, 0.72, -0.14, -2.52, -0.14
24072, 0.64, -0.31, 0.72, -0.35, -3.29, 0.14
24073, 0.64, -0.31, 0.73, -0.49, -2.45, 0.21
24074, 0.64, -0.31, 0.73, -0.56, -1.47, 0.21
24075, 0.64, -0.31, 0.72, 0.21, -2.31, -0.07
24076, 0.64, -0.31, 0.73, -0.35, -2.10, -0.21
24077, 0.65, -0.31, 0.73, 0.63, 0.21, 0.35
24078, 0.64, -0.31, 0.73, 0.42, -0.42, 0.35
24079, 0.64, -0.31, 0.72, 0.28, 0.14, 0.49
24080, 0.64, -0.31, 0.73, 1.40, -0.49, 0.98
24081, 0.64, -0.31, 0.73, 1.05, -0.28, 0.77
24082, 0.64, -0.31, 0.73, 1.05, -0.28, 0.49
24083, 0.64, -0.30, 0.73, 0.35, -0.14, 0.49
24084, 0.64, -0.31, 0.73, 0.42, 0.70, 0.28
24085, 0.64, -0.31, 0.73, 1.05, 0.70, -0.21
24086, 0.64, -0.31, 0.73, 0.63, 1.19, -0.63
24087, 0.64, -0.31, 0.73, 0.42, 0.91, -0.98
24088, 0.64, -0.31, 0.73, -0.28, 1.47, -0.49
24089, 0.63, -0.32, 0.73, -0.07, 0.98, -0.07
24090, 0.63, -0.31, 0.73, 0.49, 0.98, -0.28
24091, 0.63, -0.31, 0.73, 0.42, 0.56, -0.21
24092, 0.63, -0.31, 0.73, 0.14, 0.42, -0.14
24093, 0.63, -0.31, 0.73, 0.70, -0.21, 0.14
24094, 0.63, -0.31, 0.73, 1.40, -0.42, 0.21
24095, 0.63, -0.31, 0.73, 0.91, -0.07, 0.14
24096, 0.63, -0.32, 0.73, 1.26, -0.91, -0.07
24097, 0.63, -0.32, 0.73, 0.98, -2.03, 0.07
24098, 0.63, -0.31, 0.73, 0.56, -3.22, 0.14
24099, 0.63, -0.31, 0.74, 0.14, -3.43, 0.28
24100, 0.63, -0.31, 0.73, 0.14, -3.29, 0.49
24101, 0.64, -0.31, 0.73, 0.00, -3.43, 0.63
24102, 0.64, -0.31, 0.73, -0.21, -2.87, 0.56
24103, 0.64, -0.31, 0.73, -0.63, -3.50, 0.21
24104, 0.64, -0.31, 0.73, -1.19, -3.71, -0.28
24105, 0.64, -0.31, 0.73, -0.49, -3.43, -0.35
24106, 0.64, -0.30, 0.73, -0.63, -2.87, -0.28
24107, 0.64, -0.31, 0.73, -0.21, -2.94, 0.14
24108, 0.64, -0.31, 0.73, -0.35, -2.87, 0.00
24109, 0.64, -0.31, 0.73, -0.21, -1.89, -0.07
24110, 0.64, -0.31, 0.74, 0.00, -0.84, 0.21
24111, 0.65, -0.30, 0.73, 0.70, -0.42, 0.98
24112, 0.64, -0.31, 0.72, 0.00, -0.49, 0.35
24113, 0.64, -0.31, 0.72, 0.07, -0.56, 0.21
24114, 0.64, -0.31, 0.73, 1.12, -0.28, 0.35
24115, 0.64, -0.31, 0.73, 1.12, -0.07, 0.21
24116, 0.64, -0.31, 0.73, 0.98, -0.07, 0.14
24117, 0.64, -0.30, 0.73, 0.63, -0.77, 0.00
24118, 0.64, -0.31, 0.73, 1.05, -0.28, 0.35
24119, 0.64, -0.31, 0.73, 0.42, 0.28, 0.35
24120, 0.64, -0.31, 0.73, 0.63, 0.49, 0.28
24121, 0.63, -0.30, 0.73, 0.49, 0.00, 0.28
24122, 0.64, -0.31, 0.73, 0.56, -0.56, 0.35
24123, 0.64, -0.31, 0.73, 0.98, -0.28, 0.21
24124, 0.63, -0.31, 0.73, 0.91, -0.35, 0.14
24125, 0.63, -0.31, 0.73, 1.05, -0.07, 0.42
24126, 0.63, -0.31, 0.73, 0.91, -0.42, 0.35
24127, 0.63, -0.31, 0.73, 0.63, -0.84, 0.14
24128, 0.63, -0.31, 0.73, 0.42, -1.68, 0.07
24129, 0.63, -0.31, 0.74, 0.35, -2.17, 0.21
24130, 0.64, -0.31, 0.73, -0.28, -2.10, 0.21
24131, 0.63, -0.31, 0.73, -0.21, -1.89, 0.14
24132, 0.63, -0.31, 0.73, -0.07, -2.66, -0.21
24133, 0.63, -0.32, 0.72, -0.91, -4.55, 1.19
24134, 0.63, -0.31, 0.73, -0.56, -5.11, 4.69
24135, 0.62, -0.31, 0.74, 0.14, -8.82, 5.46
24136, 0.63, -0.31, 0.73, -0.21, -10.01, 5.67
24137, 0.64, -0.32, 0.73, 0.63, -10.78, 7.98
24138, 0.65, -0.30, 0.73, -0.70, -7.42, 7.35
24139, 0.65, -0.30, 0.72, -0.42, -6.65, 5.18
24140, 0.64, -0.31, 0.72, -0.14, -6.09, 5.39
24141, 0.65, -0.31, 0.72, -1.75, -6.58, 4.55
24142, 0.65, -0.32, 0.72, -3.15, -6.23, 3.85
24143, 0.65, -0.32, 0.72, -4.69, -4.69, 3.08
24144, 0.66, -0.31, 0.72, -3.92, 0.07, 1.12
24145, 0.65, -0.32, 0.70, -2.24, -0.49, -0.56
24146, 0.65, -0.34, 0.70, -0.77, -0.70, -2.03
24147, 0.65, -0.34, 0.70, 0.21, 1.33, -4.48
24148, 0.65, -0.34, 0.70, 0.00, 0.00, -3.92
24149, 0.65, -0.33, 0.71, 0.00, 0.49, -2.94
24150, 0.66, -0.34, 0.71, -1.19, 0.91, -2.52
24151, 0.65, -0.32, 0.71, -0.77, 2.03, -2.31
24152, 0.65, -0.33, 0.71, -0.63, 2.31, -1.82
24153, 0.65, -0.32, 0.71, -0.77, 2.31, -1.26
24154, 0.65, -0.32, 0.72, -0.21, 2.45, -1.33
24155, 0.65, -0.32, 0.72, -0.77, 2.45, -1.26
24156, 0.64, -0.32, 0.72, -0.35, 1.54, -1.26
24157, 0.64, -0.32, 0.72, 0.14, 1.40, -0.84
24158, 0.64, -0.32, 0.72, -0.14, 1.33, -0.91
24159, 0.64, -0.33, 0.72, 0.14, 0.98, -0.63
24160, 0.64, -0.32, 0.72, 0.63, 0.35, 0.35
24161, 0.64, -0.32, 0.72, 1.40, -0.14, 0.98
24162, 0.64, -0.32, 0.72, 1.47, -1.47, 1.33
24163, 0.63, -0.33, 0.72, 1.40, -1.47, 1.54
24164, 0.63, -0.33, 0.72, 0.98, -1.61, 1.12
24165, 0.64, -0.32, 0.72, 0.70, -2.52, 0.77
24166, 0.64, -0.33, 0.72, -0.49, -2.80, 0.49
24167, 0.63, -0.32, 0.72, -1.12, -3.78, -0.21
24168, 0.64, -0.33, 0.72, -0.77, -4.41, -0.21
24169, 0.65, -0.33, 0.71, -1.19, -3.29, 0.28
24170, 0.65, -0.32, 0.72, -0.42, -2.73, 0.63
24171, 0.64, -0.32, 0.72, -0.35, -2.52, 0.77
24172, 0.64, -0.33, 0.71, 0.35, -3.01, 0.49
24173, 0.64, -0.33, 0.72, -0.49, -2.59, 0.21
24174, 0.65, -0.32, 0.72, 0.91, -0.35, 0.98
24175, 0.65, -0.32, 0.72, -0.56, -0.98, 0.70
24176, 0.64, -0.32, 0.71, -0.14, -0.56, 0.49
24177, 0.65, -0.32, 0.71, 1.12, -0.35, 0.21
24178, 0.65, -0.32, 0.72, 0.35, 0.07, -0.35
24179, 0.65, -0.32, 0.72, 0.28, -0.42, 0.14
24180, 0.65, -0.32, 0.71, 0.35, 0.14, 0.35
24181, 0.65, -0.32, 0.71, 0.84, 0.28, 0.00
24182, 0.64, -0.32, 0.71, 1.05, 0.00, -0.14
24183, 0.65, -0.32, 0.72, 0.70, 0.07, 0.14
24184, 0.64, -0.32, 0.72, 0.56, 0.49, 0.21
24185, 0.64, -0.32, 0.72, 0.28, 0.49, -0.07
24186, 0.64, -0.33, 0.72, -0.07, 0.28, 0.21
24187, 0.64, -0.32, 0.72, -0.77, 0.14, -0.21
24188, 0.64, -0.32, 0.72, -0.35, 0.14, -0.42
24189, 0.64, -0.32, 0.72, 0.63, -0.63, -0.07
24190, 0.64, -0.32, 0.72, 0.91, -0.28, 0.56
24191, 0.64, -0.33, 0.71, 0.91, -0.42, 0.84
24192, 0.63, -0.33, 0.72, 0.98, -0.91, 0.98
24193, 0.63, -0.33, 0.72, 1.12, -1.75, 1.54
24194, 0.64, -0.33, 0.72, -0.35, -3.57, 0.56
24195, 0.64, -0.33, 0.72, -1.19, -3.01, -0.21
24196, 0.63, -0.33, 0.72, -1.12, -4.06, 0.00
24197, 0.63, -0.33, 0.72, -0.77, -4.27, 0.07
24198, 0.64, -0.32, 0.72, -1.19, -3.85, -0.35
24199, 0.65, -0.32, 0.72, -0.84, -3.43, -0.35
24200, 0.64, -0.33, 0.72, -1.05, -3.22, 0.00
24201, 0.65, -0.33, 0.72, -0.56, -2.59, 0.21
24202, 0.65, -0.32, 0.72, 1.40, 0.00, 0.70
24203, 0.65, -0.32, 0.72, -0.98, -0.91, 0.00
24204, 0.64, -0.32, 0.71, -0.35, -0.56, 0.56
24205, 0.65, -0.32, 0.72, 0.63, 0.00, -0.14
24206, 0.65, -0.32, 0.72, 0.49, -0.07, 0.14
24207, 0.65, -0.32, 0.72, 1.05, -0.14, 0.42
24208, 0.64, -0.32, 0.72, 1.19, -0.21, 0.49
24209, 0.65, -0.32, 0.71, 0.35, -0.14, 0.28
24210, 0.65, -0.33, 0.71, -17.85, 0.56, 1.33
24211, 0.64, -0.33, 0.72, -0.14, 0.28, 1.75
24212, 0.64, -0.33, 0.72, -1.19, 0.98, 1.96
24213, 0.63, -0.32, 0.72, -1.40, -0.28, 2.38
24214, 0.63, -0.33, 0.72, -0.35, -2.31, 4.06
24215, 0.65, -0.33, 0.72, -1.19, -0.21, 3.50
24216, 0.64, -0.33, 0.72, -0.77, -0.42, 1.61
24217, 0.63, -0.33, 0.71, 0.07, -0.91, 0.49
24218, 0.63, -0.34, 0.71, -0.70, -2.31, -0.63
24219, 0.64, -0.34, 0.71, -1.61, -3.15, -1.26
24220, 0.64, -0.34, 0.71, -2.52, -3.78, -0.91
24221, 0.64, -0.33, 0.71, -2.24, -3.71, -0.28
24222, 0.64, -0.34, 0.71, -0.70, -3.78, 0.84
24223, 0.64, -0.34, 0.72, 0.00, -4.34, 1.40
24224, 0.65, -0.33, 0.72, 0.21, -3.08, 0.63
24225, 0.64, -0.33, 0.72, 0.14, -2.73, 0.28
24226, 0.64, -0.33, 0.71, 0.35, -2.03, 0.56
24227, 0.65, -0.33, 0.72, -0.84, -1.89, -0.35
24228, 0.65, -0.33, 0.72, -1.26, -0.21, -1.68
24229, 0.64, -0.33, 0.71, 0.21, -1.12, -2.80
24230, 0.65, -0.34, 0.71, 0.98, -0.63, -1.54
24231, 0.64, -0.34, 0.72, 1.54, -1.40, -1.05
24232, 0.66, -0.32, 0.71, 3.15, 2.10, 0.84
24233, 0.64, -0.32, 0.71, 1.54, 0.84, 1.75
24234, 0.64, -0.33, 0.71, 1.96, 0.70, 1.96
24235, 0.64, -0.33, 0.71, 2.03, 0.35, 1.12
24236, 0.64, -0.32, 0.72, 1.33, -0.70, -0.07
24237, 0.64, -0.33, 0.72, 1.54, -0.42, -0.21
24238, 0.64, -0.33, 0.72, 0.56, -0.14, -0.42
24239, 0.64, -0.33, 0.72, 0.07, 0.28, -0.21
24240, 0.64, -0.33, 0.71, 0.35, 0.35, -0.28
24241, 0.64, -0.34, 0.71, 0.84, 0.14, 0.00
24242, 0.64, -0.33, 0.71, 0.77, 0.07, 0.63
24243, 0.65, -0.33, 0.72, 0.63, 0.14, 0.35
24244, 0.63, -0.33, 0.71, 1.12, -0.70, 0.42
24245, 0.64, -0.33, 0.72, 1.19, -0.84, 0.07
24246, 0.64, -0.33, 0.72, 1.61, -0.77, 0.35
24247, 0.64, -0.34, 0.71, 1.54, -1.19, 0.56
24248, 0.64, -0.33, 0.71, 1.96, -1.05, 0.28
24249, 0.63, -0.33, 0.72, 4.55, -2.03, 1.82
24250, 0.63, -0.33, 0.73, 3.57, -4.41, 3.01
24251, 0.63, -0.33, 0.72, 1.82, -7.14, 2.45
24252, 0.63, -0.33, 0.72, 1.12, -7.70, 0.91
24253, 0.64, -0.33, 0.71, 0.84, -7.07, -0.49
24254, 0.64, -0.34, 0.71, 0.28, -7.21, -2.17
24255, 0.65, -0.33, 0.73, -0.63, -3.50, -3.36
24256, 0.66, -0.32, 0.71, -0.56, -2.10, -2.17
24257, 0.66, -0.32, 0.71, -2.17, 0.00, -1.82
24258, 0.65, -0.34, 0.70, -1.47, 0.14, -3.08
24259, 0.66, -0.33, 0.70, -1.47, 2.10, -3.78
24260, 0.66, -0.32, 0.70, 0.07, 1.96, -1.33
24261, 0.65, -0.32, 0.72, 1.05, -0.07, 1.26
24262, 0.65, -0.31, 0.72, 2.10, 0.07, 1.75
24263, 0.65, -0.31, 0.72, 2.45, -0.21, 0.42
24264, 0.65, -0.31, 0.72, 1.89, 0.42, 0.21
24265, 0.65, -0.31, 0.72, 2.80, 0.35, -0.84
24266, 0.65, -0.31, 0.72, 1.40, 0.84, -1.12
24267, 0.64, -0.31, 0.71, 1.47, 1.47, -1.47
24268, 0.64, -0.32, 0.72, 1.05, 1.26, -0.63
24269, 0.64, -0.32, 0.71, 1.47, 1.40, 0.00
24270, 0.64, -0.33, 0.71, 1.61, 1.33, 0.28
24271, 0.64, -0.33, 0.72, 1.05, 0.84, -0.07
24272, 0.64, -0.32, 0.71, 0.70, -1.33, 0.28
24273, 0.64, -0.33, 0.72, -0.63, -2.45, 1.26
24274, 0.65, -0.32, 0.72, -1.54, -2.03, 1.47
24275, 0.64, -0.31, 0.72, -1.47, -0.91, 1.19
24276, 0.63, -0.32, 0.72, -1.26, -2.38, 0.28
24277, 0.65, -0.33, 0.72, -1.75, -2.59, -0.77
24278, 0.64, -0.32, 0.72, -1.12, -1.96, -0.63
24279, 0.64, -0.32, 0.71, -0.91, -2.52, -0.42
24280, 0.64, -0.33, 0.72, -0.77, -2.59, -0.42
24281, 0.65, -0.32, 0.71, -0.63, -2.73, 0.00
24282, 0.65, -0.32, 0.72, -0.42, -2.38, 0.21
24283, 0.65, -0.32, 0.71, 0.07, -2.31, 0.35
24284, 0.65, -0.32, 0.72, -0.07, -2.38, 0.21
24285, 0.65, -0.32, 0.71, 0.28, -1.89, 0.56
24286, 0.65, -0.32, 0.72, 0.14, -2.10, 0.28
24287, 0.65, -0.32, 0.71, 0.14, -1.68, 0.00
24288, 0.65, -0.32, 0.72, -0.42, -1.33, 0.35
24289, 0.65, -0.32, 0.71, 0.00, -1.26, 0.21
24290, 0.64, -0.32, 0.71, -0.14, -1.61, 0.00
24291, 0.65, -0.32, 0.71, 0.00, -1.61, 0.14
24292, 0.65, -0.33, 0.72, -0.14, -1.75, 0.21
24293, 0.66, -0.32, 0.72, 0.42, 0.98, 0.21
24294, 0.65, -0.32, 0.71, 0.07, 0.70, 0.28
24295, 0.64, -0.33, 0.71, 0.28, 0.56, 0.07
24296, 0.65, -0.32, 0.71, 0.77, 0.84, -0.56
24297, 0.64, -0.32, 0.71, 0.00, -0.49, -0.63
24298, 0.65, -0.32, 0.72, 0.42, 0.14, -0.14
24299, 0.65, -0.32, 0.71, 0.49, -0.28, 0.07
24300, 0.65, -0.32, 0.71, 0.21, 0.35, -0.21
24301, 0.64, -0.32, 0.72, 0.91, 0.21, 0.14
24302, 0.64, -0.32, 0.72, 0.21, 0.21, -0.14
24303, 0.65, -0.32, 0.72, 0.63, 0.35, 0.00
24304, 0.64, -0.33, 0.72, 0.00, 0.56, 0.00
24305, 0.64, -0.32, 0.71, 0.56, 0.35, 0.07
24306, 0.64, -0.32, 0.72, 0.63, -0.14, 0.07
24307, 0.64, -0.32, 0.72, 0.42, -0.14, 0.21
24308, 0.64, -0.32, 0.72, 0.63, -0.49, 0.28
24309, 0.64, -0.32, 0.72, 0.70, -0.14, 0.28
24310, 0.64, -0.32, 0.72, 1.12, -0.70, 0.77
24311, 0.64, -0.32, 0.72, 0.91, -1.05, 1.05
24312, 0.64, -0.33, 0.72, 1.75, -1.89, 0.84
24313, 0.64, -0.32, 0.72, 0.98, -2.24, 0.56
24314, 0.64, -0.32, 0.72, 0.49, -2.80, 0.63
24315, 0.64, -0.32, 0.72, -0.21, -3.50, 0.63
24316, 0.64, -0.32, 0.72, 0.00, -3.15, 0.28
24317, 0.64, -0.32, 0.72, 0.14, -3.15, 0.28
24318, 0.65, -0.32, 0.72, -0.07, -3.29, 0.63
24319, 0.65, -0.32, 0.72, -0.63, -2.66, 0.56
24320, 0.64, -0.32, 0.72, -0.35, -2.66, 0.07
24321, 0.64, -0.32, 0.71, 0.21, -2.66, 0.00
24322, 0.65, -0.32, 0.72, -0.07, -2.52, -0.21
24323, 0.65, -0.32, 0.71, 0.56, -2.31, -0.14
24324, 0.65, -0.32, 0.71, 0.07, -2.17, -0.42
24325, 0.65, -0.32, 0.71, 0.00, -1.40, -0.35
24326, 0.65, -0.32, 0.72, 0.21, -1.47, -0.35
24327, 0.65, -0.32, 0.72, 0.42, -0.42, -1.26
24328, 0.65, -0.31, 0.71, 0.14, 0.70, -2.38
24329, 0.65, -0.32, 0.71, 0.21, -0.07, -4.13
24330, 0.65, -0.33, 0.71, -0.28, 1.82, -4.20
24331, 0.65, -0.32, 0.71, 0.84, 1.12, -3.50
24332, 0.64, -0.32, 0.72, 3.71, 0.35, -3.57
24333, 0.64, -0.32, 0.71, 4.20, 0.21, -4.13
24334, 0.65, -0.32, 0.72, 4.13, 0.42, -3.92
24335, 0.65, -0.31, 0.72, 3.08, 1.40, -3.22
24336, 0.64, -0.31, 0.72, 2.45, 1.68, -3.43
24337, 0.64, -0.31, 0.72, 0.56, 2.52, -3.43
24338, 0.64, -0.31, 0.72, -1.40, 1.47, -2.24
24339, 0.65, -0.31, 0.73, -2.31, 1.19, -1.61
24340, 0.64, -0.31, 0.73, -1.33, 2.66, -1.05
24341, 0.63, -0.31, 0.73, -1.96, 0.84, -0.28
24342, 0.64, -0.31, 0.73, -3.08, 1.89, 0.07
24343, 0.63, -0.30, 0.73, -2.59, 2.59, 1.61
24344, 0.64, -0.29, 0.73, -0.42, 3.64, 2.52
24345, 0.64, -0.30, 0.73, 0.28, 2.10, 2.59
24346, 0.64, -0.31, 0.73, -0.77, 2.87, 0.21
24347, 0.64, -0.30, 0.73, -3.01, 3.64, -2.10
24348, 0.63, -0.31, 0.72, -2.94, 0.77, -1.12
24349, 0.63, -0.31, 0.73, -1.33, 0.49, 0.56
24350, 0.62, -0.32, 0.73, 1.54, -2.03, 3.22
24351, 0.62, -0.32, 0.73, 3.36, -4.41, 4.20
24352, 0.63, -0.31, 0.73, 4.34, -5.04, 4.27
24353, 0.64, -0.31, 0.74, 4.62, -5.04, 4.41
24354, 0.63, -0.31, 0.74, 4.62, -4.13, 3.92
24355, 0.63, -0.31, 0.74, 4.13, -3.99, 3.22
24356, 0.64, -0.30, 0.74, 3.15, -2.10, 2.52
24357, 0.64, -0.30, 0.73, 1.26, -1.61, 0.91
24358, 0.64, -0.31, 0.73, -0.07, -0.42, -0.42
24359, 0.64, -0.31, 0.72, -0.84, -0.77, -0.49
24360, 0.64, -0.32, 0.72, 0.28, -0.77, 0.56
24361, 0.64, -0.31, 0.72, 1.05, -0.84, 1.19
24362, 0.64, -0.31, 0.73, 1.33, -0.07, 1.26
24363, 0.63, -0.31, 0.72, 1.47, -0.84, 0.84
24364, 0.63, -0.32, 0.72, 1.54, -1.26, 0.35
24365, 0.64, -0.31, 0.73, 1.96, -1.68, 0.21
24366, 0.64, -0.31, 0.73, 1.47, -1.61, -0.35
24367, 0.63, -0.31, 0.73, 0.00, -1.47, -0.63
24368, 0.63, -0.31, 0.73, 0.42, -2.24, -0.35
24369, 0.63, -0.32, 0.73, 1.19, -2.52, 0.14
24370, 0.63, -0.31, 0.73, 1.40, -3.64, 0.84
24371, 0.63, -0.31, 0.73, 0.70, -4.55, 1.47
24372, 0.63, -0.31, 0.73, 1.47, -5.53, 2.24
24373, 0.64, -0.30, 0.73, 1.26, -4.41, 1.75
24374, 0.64, -0.30, 0.73, 0.49, -3.57, 0.07
24375, 0.65, -0.30, 0.73, -0.70, -2.24, -2.03
24376, 0.65, -0.31, 0.72, -0.84, -1.33, -2.31
24377, 0.64, -0.32, 0.72, -0.98, -1.40, -1.68
24378, 0.64, -0.31, 0.72, -0.77, -1.05, -1.12
24379, 0.65, -0.31, 0.72, -0.49, -1.12, -0.35
24380, 0.65, -0.31, 0.72, 0.07, -0.49, -0.70
24381, 0.65, -0.31, 0.73, -0.49, 0.77, -1.19
24382, 0.65, -0.31, 0.73, -0.77, 1.61, -2.31
24383, 0.65, -0.31, 0.72, -1.82, 1.75, -3.85
24384, 0.65, -0.31, 0.72, -3.71, 2.45, -4.76
24385, 0.65, -0.32, 0.72, -3.43, 3.50, -5.39
24386, 0.64, -0.31, 0.72, -2.80, 4.76, -3.78
24387, 0.62, -0.31, 0.72, 0.07, 2.24, -1.05
24388, 0.63, -0.31, 0.73, 0.77, 0.70, -0.21
24389, 0.64, -0.31, 0.73, 1.47, 0.56, -0.70
24390, 0.64, -0.31, 0.73, 0.84, 2.45, -0.98
24391, 0.63, -0.30, 0.74, 1.26, 0.98, 0.00
24392, 0.63, -0.30, 0.74, -17.64, 0.70, -0.84
24393, 0.64, -0.30, 0.73, -0.84, 2.52, -2.66
24394, 0.64, -0.30, 0.73, -1.12, 3.57, -3.50
24395, 0.62, -0.31, 0.73, -0.56, 1.96, -1.96
24396, 0.63, -0.31, 0.73, -0.70, 0.21, -0.56
24397, 0.63, -0.30, 0.74, 0.70, -0.28, 0.70
24398, 0.63, -0.30, 0.74, 3.01, -0.42, 1.54
24399, 0.63, -0.30, 0.74, 3.01, -0.28, 2.03
24400, 0.63, -0.30, 0.74, 2.73, 0.00, 1.96
24401, 0.62, -0.30, 0.74, 2.45, -1.40, 2.24
24402, 0.63, -0.30, 0.74, 3.15, -1.68, 2.03
24403, 0.63, -0.30, 0.74, 2.10, -2.10, 2.38
24404, 0.63, -0.30, 0.74, 1.40, -1.89, 2.38
24405, 0.63, -0.30, 0.75, 2.10, -1.89, 2.45
24406, 0.63, -0.29, 0.74, 1.82, -1.82, 2.31
24407, 0.63, -0.30, 0.74, 0.77, -1.19, 1.89
24408, 0.63, -0.30, 0.74, 0.84, -0.98, 1.40
24409, 0.63, -0.30, 0.74, 0.70, -0.63, 1.26
24410, 0.63, -0.30, 0.73, 0.77, -1.96, 1.61
24411, 0.63, -0.31, 0.74, 0.98, -1.96, 2.17
24412, 0.63, -0.31, 0.74, 1.26, -2.03, 1.96
24413, 0.63, -0.30, 0.73, 1.54, -1.96, 1.89
24414, 0.63, -0.30, 0.74, 1.61, -1.47, 1.89
24415, 0.63, -0.30, 0.74, 1.75, -1.40, 1.61
24416, 0.63, -0.30, 0.74, 0.77, -0.91, 1.19
24417, 0.63, -0.30, 0.73, 1.19, 0.00, 0.84
24418, 0.63, -0.30, 0.74, 0.84, -0.63, 0.63
24419, 0.63, -0.30, 0.74, 0.63, -0.14, 0.35
24420, 0.62, -0.30, 0.74, 0.70, -0.91, 0.07
24421, 0.63, -0.30, 0.74, 0.56, -0.98, -0.07
24422, 0.63, -0.31, 0.74, 0.14, -1.47, -0.07
24423, 0.63, -0.30, 0.74, -0.21, -1.61, 0.07
24424, 0.62, -0.30, 0.74, 0.21, -2.10, 0.14
24425, 0.63, -0.31, 0.74, -0.21, -2.03, -0.21
24426, 0.63, -0.30, 0.74, -0.42, -1.82, -0.35
24427, 0.63, -0.31, 0.74, -0.70, -1.82, -0.49
24428, 0.63, -0.30, 0.73, -0.42, -1.33, -0.49
24429, 0.63, -0.30, 0.74, -0.56, -2.03, -0.21
24430, 0.63, -0.30, 0.74, -0.14, -1.96, -0.14
24431, 0.63, -0.30, 0.74, -0.28, -1.68, 0.21
24432, 0.63, -0.30, 0.74, -0.77, -1.68, 0.00
24433, 0.63, -0.30, 0.74, -0.21, -1.82, -0.07
24434, 0.63, -0.30, 0.74, -0.56, -1.19, 0.07
24435, 0.63, -0.30, 0.73, -0.35, -1.40, -0.14
24436, 0.63, -0.30, 0.74, -0.42, -1.75, 0.00
24437, 0.63, -0.30, 0.74, -0.14, -1.12, 0.14
24438, 0.63, -0.30, 0.73, -0.56, -1.54, 0.14
24439, 0.63, -0.30, 0.74, -0.35, -1.61, 0.14
24440, 0.63, -0.30, 0.73, -0.07, -1.47, 0.14
24441, 0.63, -0.30, 0.74, -0.14, -1.47, 0.28
24442, 0.63, -0.31, 0.73, 0.07, -1.61, 0.35
24443, 0.63, -0.31, 0.73, 0.28, -1.47, 0.28
24444, 0.63, -0.30, 0.75, -0.21, -1.40, 0.07
24445, 0.64, -0.30, 0.73, 2.31, 0.35, 1.33
24446, 0.63, -0.31, 0.73, 0.70, -0.14, 1.12
24447, 0.63, -0.31, 0.73, 1.47, -0.35, 0.84
24448, 0.63, -0.30, 0.74, 1.05, -0.21, 0.77
24449, 0.63, -0.30, 0.74, 0.91, -0.70, 0.63
24450, 0.63, -0.30, 0.74, 1.12, -0.63, 0.42
24451, 0.63, -0.30, 0.74, 1.33, -0.28, 0.28
24452, 0.63, -0.30, 0.74, 1.61, -0.21, 0.77
24453, 0.63, -0.31, 0.74, 1.68, -0.07, 0.91
24454, 0.63, -0.30, 0.74, 0.91, 0.21, 0.70
24455, 0.63, -0.30, 0.74, 0.98, 0.14, 0.56
24456, 0.63, -0.30, 0.74, 0.70, -0.49, 0.28
24457, 0.63, -0.30, 0.74, 0.56, -0.21, 0.42
24458, 0.63, -0.30, 0.74, 0.42, -0.42, 0.49
24459, 0.62, -0.30, 0.74, 0.91, -0.21, 0.49
24460, 0.63, -0.30, 0.74, 1.12, -0.77, 0.63
24461, 0.62, -0.30, 0.74, 1.33, -0.98, 0.70
24462, 0.62, -0.30, 0.74, 1.68, -0.49, 1.05
24463, 0.62, -0.30, 0.74, 1.12, -0.70, 0.56
24464, 0.62, -0.31, 0.74, 0.56, -1.61, 0.63
24465, 0.63, -0.30, 0.74, 0.77, -2.17, 0.42
24466, 0.62, -0.30, 0.74, -0.35, -2.80, 0.14
24467, 0.62, -0.30, 0.74, -0.21, -3.22, -0.14
24468, 0.63, -0.30, 0.74, -0.28, -2.94, 0.00
24469, 0.63, -0.30, 0.74, -0.49, -2.73, 0.00
24470, 0.63, -0.30, 0.74, -0.63, -2.38, -0.21
24471, 0.63, -0.30, 0.74, -0.70, -2.24, -0.42
24472, 0.63, -0.30, 0.74, -0.91, -2.52, -0.42
24473, 0.63, -0.31, 0.74, -0.56, -2.03, -0.07
24474, 0.63, -0.30, 0.74, -0.42, -1.40, -0.14
24475, 0.63, -0.30, 0.74, 0.00, -1.12, -0.21
24476, 0.63, -0.30, 0.74, 0.07, -1.19, -0.07
24477, 0.63, -0.30, 0.74, 0.00, -1.75, 0.14
24478, 0.63, -0.30, 0.74, 0.35, -1.89, 0.35
24479, 0.63, -0.30, 0.74, 0.00, -1.47, 0.00
24480, 0.63, -0.30, 0.74, 0.28, -0.70, -0.28
24481, 0.63, -0.30, 0.74, 0.07, -1.12, -0.14
24482, 0.63, -0.30, 0.74, 0.07, -1.33, -0.28
24483, 0.63, -0.30, 0.73, 0.00, -1.40, -0.28
24484, 0.63, -0.30, 0.74, 0.21, -1.82, -0.07
24485, 0.63, -0.31, 0.73, 0.28, -1.96, -0.07
24486, 0.63, -0.31, 0.73, 0.49, -1.89, 0.35
24487, 0.63, -0.30, 0.73, 0.56, -2.24, 0.84
24488, 0.63, -0.30, 0.74, 0.42, -2.52, 0.49
24489, 0.63, -0.30, 0.75, -0.14, -0.56, 0.70
24490, 0.64, -0.30, 0.74, 1.33, 0.63, 1.26
24491, 0.63, -0.30, 0.74, 0.35, 0.56, 0.70
24492, 0.63, -0.30, 0.74, 0.63, -0.28, 0.21
24493, 0.63, -0.30, 0.74, 0.28, -0.28, -0.14
24494, 0.63, -0.31, 0.74, 0.35, -0.28, -0.14
24495, 0.63, -0.30, 0.74, 0.91, -0.35, -0.07
24496, 0.63, -0.30, 0.74, 1.19, -0.07, 0.21
24497, 0.63, -0.30, 0.74, 0.91, -0.49, 0.49
24498, 0.63, -0.30, 0.74, 1.26, -0.35, 0.77
24499, 0.63, -0.30, 0.74, 1.05, -0.49, 0.91
24500, 0.62, -0.30, 0.74, 1.40, -0.63, 0.84
24501, 0.63, -0.30, 0.74, 0.98, -0.77, 0.49
24502, 0.63, -0.30, 0.74, 0.49, 0.07, 0.21
24503, 0.63, -0.30, 0.74, 0.42, 0.42, -0.42
24504, 0.63, -0.30, 0.74, 0.49, -0.56, -0.42
24505, 0.63, -0.30, 0.74, 0.63, -0.35, 0.63
24506, 0.63, -0.30, 0.74, 1.75, 0.14, 0.98
24507, 0.62, -0.30, 0.74, 1.89, -0.49, 0.84
24508, 0.62, -0.30, 0.74, 1.54, -1.54, 1.05
24509, 0.63, -0.30, 0.74, 1.54, -0.98, 1.12
24510, 0.62, -0.30, 0.74, 1.47, -1.26, 0.98
24511, 0.62, -0.30, 0.74, 0.91, -1.54, 0.49
24512, 0.62, -0.30, 0.74, 0.35, -2.66, 0.84
24513, 0.63, -0.30, 0.74, 0.07, -2.66, 0.42
24514, 0.62, -0.30, 0.74, 0.21, -2.94, 0.49
24515, 0.62, -0.30, 0.74, 0.42, -3.50, 1.19
24516, 0.63, -0.30, 0.74, 0.14, -3.71, 1.19
24517, 0.63, -0.30, 0.74, -0.63, -3.71, 0.98
24518, 0.63, -0.30, 0.75, -0.84, -2.45, 0.70
24519, 0.63, -0.30, 0.74, -1.05, -2.10, -0.42
24520, 0.63, -0.30, 0.74, -0.35, -2.10, -1.05
24521, 0.63, -0.30, 0.74, -0.98, -2.17, -0.35
24522, 0.63, -0.30, 0.74, -0.91, -2.10, -0.42
24523, 0.63, -0.30, 0.74, -0.56, -1.82, -0.49
24524, 0.63, -0.30, 0.74, -0.21, -1.40, -0.07
24525, 0.63, -0.30, 0.74, -0.35, -1.47, -0.07
24526, 0.63, -0.30, 0.73, -0.14, -0.84, -0.28
24527, 0.63, -0.30, 0.74, -0.14, -0.63, -0.35
24528, 0.63, -0.30, 0.74, -0.28, -1.05, -0.35
24529, 0.63, -0.30, 0.74, -0.07, -0.84, -0.35
24530, 0.63, -0.30, 0.74, -0.49, -0.91, -0.56
24531, 0.63, -0.30, 0.74, -0.21, -1.26, -0.28
24532, 0.63, -0.30, 0.74, -0.07, -1.05, 0.07
24533, 0.63, -0.30, 0.74, 0.14, -0.84, 0.28
24534, 0.63, -0.30, 0.74, 0.42, -1.61, 0.00
24535, 0.63, -0.31, 0.74, 0.98, -2.24, 0.49
24536, 0.63, -0.30, 0.74, 1.68, -2.59, 1.96
24537, 0.63, -0.30, 0.74, 0.21, -2.24, 1.33
24538, 0.63, -0.30, 0.74, 0.00, -1.40, 0.35
24539, 0.63, -0.30, 0.73, -0.63, -0.84, -0.21
24540, 0.63, -0.30, 0.73, -0.70, -1.19, -0.42
24541, 0.63, -0.30, 0.75, -0.70, -0.98, -0.56
24542, 0.64, -0.30, 0.74, 0.21, 0.91, -0.35
24543, 0.64, -0.31, 0.73, 0.21, 17.85, -0.14
24544, 0.63, -0.31, 0.73, 0.84, 0.00, 0.28
24545, 0.63, -0.30, 0.74, 0.98, 0.07, 0.56
24546, 0.63, -0.29, 0.74, 0.91, 0.07, 0.42
24547, 0.63, -0.30, 0.74, 1.05, 0.21, 0.07
24548, 0.63, -0.30, 0.74, 0.84, 0.14, -0.14
24549, 0.63, -0.30, 0.74, 0.70, 0.35, -0.21
24550, 0.63, -0.30, 0.74, 0.91, 0.49, -0.07
24551, 0.63, -0.30, 0.74, 0.91, 0.84, 0.14
24552, 0.63, -0.30, 0.74, 0.77, 0.00, 0.14
24553, 0.63, -0.30, 0.74, 0.35, -0.14, 0.49
24554, 0.63, -0.31, 0.74, 1.12, -0.56, 0.70
24555, 0.63, -0.30, 0.75, 1.12, -0.70, 0.49
24556, 0.63, -0.30, 0.74, 1.05, -0.77, 0.77
24557, 0.63, -0.30, 0.74, 0.91, -1.05, 0.63
24558, 0.63, -0.30, 0.74, 0.70, -0.70, 0.70
24559, 0.63, -0.30, 0.74, 0.98, -0.77, 0.70
24560, 0.63, -0.30, 0.74, 0.56, -0.84, 0.56
24561, 0.63, -0.30, 0.74, 0.98, -0.84, 0.77
24562, 0.62, -0.30, 0.74, 0.77, -1.40, 0.42
24563, 0.63, -0.30, 0.74, 0.98, -1.33, 0.56
24564, 0.63, -0.30, 0.75, 1.05, -1.33, 0.77
24565, 0.63, -0.30, 0.74, 1.26, -1.05, 0.63
24566, 0.62, -0.31, 0.74, 0.70, -1.33, 0.49
24567, 0.62, -0.31, 0.74, 0.98, -1.68, 0.56
24568, 0.62, -0.30, 0.74, 0.49, -2.87, 0.21
24569, 0.62, -0.30, 0.74, -0.14, -3.08, 0.14
24570, 0.63, -0.31, 0.75, 0.07, -3.01, 0.14
24571, 0.63, -0.30, 0.74, 0.00, -2.52, 0.21
24572, 0.63, -0.29, 0.74, -0.35, -2.59, 0.35
24573, 0.63, -0.30, 0.74, -0.84, -2.45, -0.14
24574, 0.63, -0.30, 0.74, -0.84, -2.38, -0.42
24575, 0.63, -0.30, 0.74, -0.70, -2.73, -0.35
24576, 0.63, -0.30, 0.74, -0.49, -2.24, 0.21
24577, 0.63, -0.29, 0.74, 0.00, -2.24, -0.07
24578, 0.63, -0.30, 0.74, -0.28, -2.03, -0.28
24579, 0.63, -0.30, 0.74, -0.14, -2.17, -0.07
24580, 0.63, -0.30, 0.74, -0.21, -1.19, 0.07
24581, 0.63, -0.30, 0.74, 0.07, -1.47, -0.14
24582, 0.63, -0.30, 0.74, -0.07, -1.61, -0.35
24583, 0.63, -0.30, 0.74, 0.07, -0.77, -0.21
24584, 0.63, -0.30, 0.74, -0.21, -0.91, -0.42
24585, 0.63, -0.30, 0.74, -0.35, -0.49, 0.07
24586, 0.63, -0.30, 0.74, -0.14, -0.91, 0.00
24587, 0.63, -0.30, 0.74, -0.07, -0.84, -0.35
24588, 0.63, -0.30, 0.74, 0.28, -1.26, 0.14
24589, 0.63, -0.30, 0.74, 0.07, -1.19, 0.21
24590, 0.64, -0.29, 0.75, 0.91, 1.33, -1.68
24591, 0.65, -0.30, 0.73, -2.45, 2.73, -5.25
24592, 0.63, -0.32, 0.72, -2.59, 0.84, -3.50
24593, 0.62, -0.31, 0.74, -0.28, 0.00, -0.28
24594, 0.62, -0.30, 0.74, 1.05, -3.22, 3.36
24595, 0.62, -0.29, 0.75, 1.40, -3.50, 4.55
24596, 0.63, -0.29, 0.75, 2.87, -2.31, 3.43
24597, 0.63, -0.29, 0.75, 2.87, -1.61, 2.24
24598, 0.63, -0.29, 0.75, 1.40, -0.42, 1.26
24599, 0.63, -0.29, 0.74, -0.63, -0.14, -0.28
24600, 0.64, -0.30, 0.74, -0.84, -0.35, -1.47
24601, 0.63, -0.30, 0.74, -0.56, 0.07, -1.05
24602, 0.64, -0.31, 0.74, 0.28, 0.00, -0.21
24603, 0.63, -0.30, 0.73, 0.28, -0.28, 0.91
24604, 0.63, -0.31, 0.74, 1.54, -0.77, 1.75
24605, 0.63, -0.31, 0.74, 2.10, -0.77, 1.82
24606, 0.63, -0.30, 0.74, 2.24, -0.84, 1.75
24607, 0.63, -0.30, 0.74, 1.89, -1.05, 1.54
24608, 0.62, -0.30, 0.74, 1.47, -0.70, 1.19
24609, 0.62, -0.30, 0.74, 0.63, -0.91, 0.70
24610, 0.62, -0.30, 0.75, 0.35, -1.26, 0.35
24611, 0.63, -0.31, 0.73, -0.35, -2.31, 0.63
24612, 0.62, -0.31, 0.74, 1.75, -4.83, 3.36
24613, 0.62, -0.30, 0.75, 2.59, -4.48, 5.11
24614, 0.64, -0.30, 0.75, 1.19, -3.29, 4.76
24615, 0.62, -0.31, 0.73, 0.56, -5.60, 4.76
24616, 0.63, -0.31, 0.74, -0.28, -6.30, 4.62
24617, 0.64, -0.30, 0.75, -2.45, -3.78, 4.83
24618, 0.62, -0.31, 0.75, -1.40, -6.65, 5.67
24619, 0.63, -0.30, 0.73, -3.08, -6.79, 5.11
24620, 0.64, -0.31, 0.73, -3.50, -6.86, 5.18
24621, 0.63, -0.31, 0.74, -3.01, -9.10, 5.39
24622, 0.64, -0.31, 0.72, -3.22, -7.49, 4.76
24623, 0.64, -0.32, 0.73, -1.68, -8.75, 5.53
24624, 0.65, -0.32, 0.73, -3.71, -8.96, 5.18
24625, 0.66, -0.30, 0.72, -5.95, -3.29, 3.99
24626, 0.63, -0.33, 0.71, -5.53, -7.00, 4.97
24627, 0.63, -0.34, 0.72, -2.10, -8.82, 4.97
24628, 0.64, -0.33, 0.73, -1.68, -6.93, 2.10
24629, 0.65, -0.32, 0.71, -5.11, -3.36, 0.00
24630, 0.65, -0.33, 0.70, -4.48, -3.36, -2.10
24631, 0.65, -0.34, 0.70, -3.57, -3.08, -3.29
24632, 0.66, -0.35, 0.71, -2.17, -1.26, -3.85
24633, 0.66, -0.35, 0.69, -1.68, -0.77, -4.13
24634, 0.65, -0.35, 0.70, -0.98, -0.21, -3.08
24635, 0.64, -0.34, 0.70, -0.35, -0.84, -1.82
24636, 0.66, -0.33, 0.71, 1.19, 1.40, -0.91
24637, 0.66, -0.33, 0.71, 0.00, 3.08, -0.63
24638, 0.65, -0.33, 0.71, -0.63, 3.57, -0.42
24639, 0.65, -0.32, 0.72, -0.63, 3.50, -0.14
24640, 0.64, -0.32, 0.72, -1.12, 3.22, -0.56
24641, 0.63, -0.32, 0.72, -0.91, 2.31, -0.84
24642, 0.64, -0.32, 0.72, 0.49, 1.40, -0.49
24643, 0.64, -0.32, 0.72, -0.35, 0.98, -0.49
24644, 0.64, -0.33, 0.72, 0.28, 0.35, -0.07
24645, 0.64, -0.33, 0.72, 0.63, 0.63, 0.21
24646, 0.64, -0.33, 0.72, 0.98, 0.63, 0.70
24647, 0.64, -0.33, 0.72, 1.40, -0.42, 0.84
24648, 0.64, -0.33, 0.72, 0.28, 0.49, 0.63
24649, 0.64, -0.33, 0.72, 0.84, 0.00, 0.91
24650, 0.63, -0.33, 0.72, 0.70, -0.21, 0.63
24651, 0.64, -0.33, 0.72, 0.63, -0.42, 0.28
24652, 0.64, -0.33, 0.72, 0.91, -1.26, 0.56
24653, 0.64, -0.33, 0.72, 0.49, -0.42, 0.49
24654, 0.63, -0.33, 0.72, 0.98, -1.19, 0.84
24655, 0.63, -0.33, 0.72, 1.05, -1.47, 1.47
24656, 0.63, -0.33, 0.72, 0.91, -1.47, 1.19
24657, 0.63, -0.34, 0.72, 1.05, -2.45, 0.56
24658, 0.64, -0.34, 0.72, 0.00, -3.01, 0.49
24659, 0.64, -0.33, 0.72, -0.49, -3.36, 0.35
24660, 0.64, -0.33, 0.72, 0.07, -3.36, 0.49
24661, 0.64, -0.33, 0.72, 0.00, -3.29, 0.77
24662, 0.64, -0.33, 0.72, -0.42, -3.36, 0.70
24663, 0.64, -0.33, 0.72, -0.70, -3.36, 0.21
24664, 0.65, -0.33, 0.72, -1.26, -2.03, 0.49
24665, 0.64, -0.33, 0.72, -0.14, -2.52, 0.42
24666, 0.64, -0.33, 0.71, -0.35, -2.17, -0.14
24667, 0.65, -0.33, 0.72, -1.05, -1.68, -0.77
24668, 0.64, -0.33, 0.71, -0.07, -1.40, -0.28
24669, 0.64, -0.33, 0.71, 0.14, -2.17, -0.63
24670, 0.65, -0.33, 0.72, -0.21, -0.63, -0.49
24671, 0.64, -0.33, 0.71, 0.07, -1.26, 0.00
24672, 0.64, -0.33, 0.72, -0.49, -1.61, -0.35
24673, 0.64, -0.33, 0.72, 0.14, -1.68, -0.28
24674, 0.64, -0.33, 0.72, 0.07, -2.52, 0.35
24675, 0.65, -0.33, 0.72, -17.85, -1.89, 0.00
24676, 0.65, -0.33, 0.72, -0.21, -1.40, 0.21
24677, 0.64, -0.33, 0.73, 0.14, -0.56, 0.21
24678, 0.65, -0.33, 0.71, 0.21, 0.70, 0.07
24679, 0.64, -0.33, 0.71, -0.28, 0.00, 0.28
24680, 0.64, -0.34, 0.71, 0.28, 0.35, -0.14
24681, 0.64, -0.33, 0.72, 0.63, 0.28, -0.49
24682, 0.64, -0.33, 0.71, 0.28, -0.21, 0.14
24683, 0.64, -0.33, 0.72, 0.91, -0.42, 0.56
24684, 0.64, -0.33, 0.72, 0.70, 0.07, 0.56
24685, 0.64, -0.33, 0.72, 0.84, -0.21, 0.21
24686, 0.64, -0.33, 0.72, 0.91, 0.63, 0.21
24687, 0.64, -0.33, 0.72, 1.89, 0.77, 0.28
24688, 0.64, -0.33, 0.72, 0.70, 0.56, -0.14
24689, 0.64, -0.33, 0.72, 0.28, 0.70, -0.35
24690, 0.64, -0.33, 0.72, 0.28, 0.07, -0.21
24691, 0.64, -0.34, 0.72, 0.49, 0.00, -0.07
24692, 0.63, -0.33, 0.72, 0.49, 0.07, 0.00
24693, 0.64, -0.33, 0.72, 0.49, 0.07, 0.00
24694, 0.64, -0.33, 0.72, 0.70, -0.35, 0.00
24695, 0.64, -0.33, 0.72, 0.42, -0.07, 0.42
24696, 0.63, -0.34, 0.72, 1.05, -0.91, 0.91
24697, 0.63, -0.33, 0.72, 0.91, -0.56, 0.49
24698, 0.63, -0.33, 0.72, 1.05, -1.54, 0.35
24699, 0.63, -0.34, 0.73, 0.35, -2.80, 0.56
24700, 0.64, -0.33, 0.72, 0.28, -2.87, 0.49
24701, 0.63, -0.33, 0.72, 0.70, -3.29, 0.49
24702, 0.64, -0.33, 0.72, -17.85, -2.59, 0.28
24703, 0.64, -0.33, 0.72, -0.07, -2.94, 0.21
24704, 0.63, -0.33, 0.72, -0.28, -2.73, 0.07
24705, 0.64, -0.33, 0.72, -0.28, -3.15, 0.21
24706, 0.64, -0.33, 0.72, -0.77, -2.80, 0.00
24707, 0.64, -0.33, 0.72, -0.35, -2.94, -0.07
24708, 0.64, -0.33, 0.72, -0.42, -2.45, -0.14
24709, 0.64, -0.33, 0.72, -0.42, -2.10, -0.07
24710, 0.64, -0.33, 0.71, -0.35, -2.66, 0.14
24711, 0.65, -0.33, 0.72, -0.14, -2.03, 0.28
24712, 0.64, -0.33, 0.72, -0.07, -1.61, 0.14
24713, 0.64, -0.33, 0.71, -0.35, -1.61, -0.07
24714, 0.64, -0.33, 0.72, 0.07, -1.47, 0.21
24715, 0.65, -0.33, 0.72, 0.28, -1.26, 0.35
24716, 0.64, -0.33, 0.72, 0.07, -1.12, 0.14
24717, 0.64, -0.33, 0.71, -0.21, -1.47, 0.00
24718, 0.64, -0.33, 0.72, 0.07, -1.19, 0.21
24719, 0.64, -0.33, 0.71, -0.35, -1.12, 0.21
24720, 0.64, -0.33, 0.72, -0.35, -1.47, -0.28
24721, 0.64, -0.33, 0.72, -0.07, -1.61, 0.07
24722, 0.64, -0.33, 0.72, 0.14, -1.54, 0.63
24723, 0.64, -0.33, 0.72, 0.00, -1.26, 0.14
24724, 0.64, -0.33, 0.72, -0.21, -1.82, 0.07
24725, 0.64, -0.33, 0.72, 0.07, -1.68, 0.35
24726, 0.64, -0.33, 0.72, 0.14, -1.82, 0.21
24727, 0.65, -0.33, 0.71, 0.07, -1.33, 0.21
24728, 0.65, -0.33, 0.71, 0.28, -1.54, 0.35
24729, 0.64, -0.33, 0.71, 0.35, -1.68, 0.07
24730, 0.65, -0.34, 0.72, 0.14, -1.82, 0.35
24731, 0.65, -0.33, 0.72, 1.26, 0.07, 0.91
24732, 0.65, -0.33, 0.71, 1.05, -0.42, 0.56
24733, 0.64, -0.33, 0.71, 0.28, -0.07, 0.07
24734, 0.64, -0.33, 0.72, 0.49, 0.07, 0.07
24735, 0.64, -0.33, 0.72, 0.35, -0.21, 0.07
24736, 0.65, -0.33, 0.72, 0.35, 0.14, -0.07
24737, 0.64, -0.33, 0.71, 0.49, -0.07, 0.07
24738, 0.64, -0.33, 0.71, 0.63, 0.14, 0.35
24739, 0.64, -0.33, 0.72, 0.77, -0.07, 0.14
24740, 0.65, -0.33, 0.72, 0.00, 0.84, -0.42
24741, 0.64, -0.33, 0.72, 0.21, 0.42, -0.14
24742, 0.64, -0.33, 0.71, 0.42, 0.56, -0.21
24743, 0.64, -0.33, 0.72, 0.00, 0.91, -0.21
24744, 0.64, -0.34, 0.72, 0.56, 0.49, 0.14
24745, 0.64, -0.33, 0.72, 0.98, 1.05, 0.14
24746, 0.63, -0.33, 0.72, 0.98, 0.21, 0.35
24747, 0.64, -0.33, 0.72, 1.33, -0.07, 0.49
24748, 0.64, -0.33, 0.72, 0.63, 0.14, 0.14
24749, 0.64, -0.33, 0.72, 0.77, 0.00, 0.42
24750, 0.64, -0.33, 0.72, 0.70, -0.14, 0.49
24751, 0.64, -0.33, 0.72, 0.56, 0.07, 0.28
24752, 0.63, -0.33, 0.72, 0.28, -0.14, -0.07
24753, 0.63, -0.33, 0.72, 0.49, -0.56, 0.49
24754, 0.64, -0.33, 0.72, 0.98, -0.70, 0.70
24755, 0.63, -0.33, 0.72, 1.12, -1.26, 0.70
24756, 0.63, -0.33, 0.72, 1.19, -1.54, 0.70
24757, 0.63, -0.33, 0.72, 0.91, -1.96, 0.56
24758, 0.63, -0.33, 0.72, 0.56, -2.45, 0.28
24759, 0.63, -0.33, 0.73, 0.56, -2.66, 0.56
24760, 0.63, -0.33, 0.72, 0.14, -1.96, 0.63
24761, 0.63, -0.33, 0.72, 0.14, -2.31, 0.21
24762, 0.63, -0.33, 0.72, -0.14, -2.52, 0.00
24763, 0.64, -0.33, 0.72, 0.21, -2.45, 0.07
24764, 0.64, -0.33, 0.72, -0.21, -2.31, 0.14
24765, 0.64, -0.33, 0.72, -0.35, -2.24, 0.07
24766, 0.64, -0.33, 0.72, -0.35, -1.96, 0.28
24767, 0.64, -0.33, 0.72, 0.00, -2.66, 0.42
24768, 0.64, -0.33, 0.72, -0.28, -2.31, 0.07
24769, 0.64, -0.33, 0.72, 0.14, -2.73, 0.07
24770, 0.64, -0.33, 0.72, -0.14, -2.38, 0.28
24771, 0.64, -0.33, 0.72, -0.49, -1.75, 0.35
24772, 0.64, -0.33, 0.72, -0.28, -1.47, 0.00
24773, 0.64, -0.33, 0.72, 0.00, -1.47, 0.14
24774, 0.64, -0.33, 0.71, 0.21, -1.40, 0.21
24775, 0.64, -0.33, 0.72, -0.07, -1.96, 0.21
24776, 0.64, -0.34, 0.72, -0.42, -1.61, 0.77
24777, 0.64, -0.33, 0.72, 0.49, -1.54, 0.28
24778, 0.64, -0.33, 0.72, -0.21, -1.61, -0.07
24779, 0.63, -0.33, 0.72, -0.35, -1.96, 0.35
24780, 0.64, -0.33, 0.72, -0.14, -1.47, 0.35
24781, 0.64, -0.33, 0.72, 0.07, -1.89, 0.07
24782, 0.64, -0.33, 0.72, -0.49, -1.61, 0.14
24783, 0.64, -0.33, 0.71, 0.14, -2.03, 0.35
24784, 0.64, -0.33, 0.72, -0.28, -1.33, 0.07
24785, 0.64, -0.34, 0.71, -0.14, -1.82, 0.14
24786, 0.64, -0.33, 0.72, 0.07, -2.10, 0.35
24787, 0.64, -0.33, 0.71, 0.14, -1.68, 0.42
24788, 0.64, -0.34, 0.72, 0.21, -1.68, 0.28
24789, 0.64, -0.33, 0.71, 0.28, -1.47, 0.42
24790, 0.64, -0.33, 0.71, 0.21, -1.33, 0.14
24791, 0.64, -0.33, 0.71, 0.14, -1.61, 0.21
24792, 0.64, -0.34, 0.71, 0.63, -1.54, 0.49
24793, 0.64, -0.34, 0.71, 0.49, -1.82, 0.21
24794, 0.64, -0.33, 0.72, 0.63, -0.56, 0.49
24795, 0.65, -0.33, 0.71, 1.19, -0.49, 0.70
24796, 0.64, -0.33, 0.72, 0.42, -0.42, 0.70
24797, 0.64, -0.33, 0.71, 0.56, 0.14, 0.07
24798, 0.64, -0.33, 0.72, 0.49, 0.00, -0.07
24799, 0.64, -0.33, 0.72, 0.42, 0.28, 0.14
24800, 0.64, -0.33, 0.72, 0.70, 0.07, 0.07
24801, 0.64, -0.33, 0.72, 0.49, -0.21, -0.28
24802, 0.64, -0.33, 0.72, 0.77, -0.28, 0.00
24803, 0.64, -0.33, 0.72, 0.77, 0.00, 0.14
24804, 0.64, -0.33, 0.72, 0.35, 0.28, -0.21
24805, 0.65, -0.33, 0.72, 0.77, 1.12, -0.56
24806, 0.64, -0.33, 0.72, 0.98, 2.10, -1.33
24807, 0.63, -0.34, 0.71, 1.19, 1.05, -2.52
24808, 0.64, -0.34, 0.72, 1.54, 1.33, -1.75
24809, 0.65, -0.33, 0.72, 0.49, 1.68, -1.96
24810, 0.64, -0.33, 0.72, 0.21, 2.94, -1.89
24811, 0.63, -0.33, 0.72, 0.91, 2.38, -1.89
24812, 0.64, -0.33, 0.72, 1.26, 2.17, -1.96
24813, 0.63, -0.33, 0.72, 1.82, 1.96, -1.47
24814, 0.64, -0.32, 0.72, 0.91, 1.89, -2.03
24815, 0.63, -0.32, 0.72, 0.91, 2.17, -1.82
24816, 0.63, -0.32, 0.73, 1.26, 1.33, -1.89
24817, 0.63, -0.32, 0.73, 1.75, 1.47, -1.96
24818, 0.63, -0.32, 0.73, 0.91, 1.40, -1.96
24819, 0.63, -0.33, 0.73, 0.84, 1.82, -3.08
24820, 0.63, -0.33, 0.73, -0.28, 2.17, -5.25
24821, 0.63, -0.32, 0.74, -0.63, 4.55, -5.53
24822, 0.63, -0.33, 0.73, 0.21, 3.08, -7.21
24823, 0.65, -0.32, 0.73, -3.15, 9.03, -8.96
24824, 0.65, -0.32, 0.73, -4.69, 11.76, -8.05
24825, 0.62, -0.31, 0.74, -5.81, 9.66, -5.46
24826, 0.60, -0.33, 0.73, -4.06, 5.04, -5.67
24827, 0.63, -0.32, 0.74, -2.87, 7.63, -6.86
24828, 0.64, -0.32, 0.75, -2.73, 9.87, -5.60
24829, 0.60, -0.31, 0.74, -1.40, 5.32, -0.77
24830, 0.59, -0.31, 0.75, 1.89, -0.14, 0.56
24831, 0.59, -0.31, 0.75, 5.32, -3.22, 1.19
24832, 0.60, -0.31, 0.76, 7.00, -7.00, 2.31
24833, 0.61, -0.30, 0.76, 7.21, -6.72, 2.52
24834, 0.61, -0.29, 0.76, 5.67, -6.30, 2.45
24835, 0.61, -0.30, 0.76, 4.06, -5.74, 1.89
24836, 0.62, -0.30, 0.76, 2.45, -4.62, 1.54
24837, 0.61, -0.30, 0.75, 1.54, -4.69, 1.47
24838, 0.62, -0.31, 0.75, 0.56, -5.11, 0.98
24839, 0.62, -0.31, 0.75, 0.21, -4.90, 1.40
24840, 0.62, -0.31, 0.74, 1.40, -6.02, 2.31
24841, 0.63, -0.31, 0.74, 0.84, -5.04, 2.66
24842, 0.63, -0.31, 0.74, 1.54, -4.90, 2.17
24843, 0.64, -0.30, 0.74, 0.98, -4.06, 1.47
24844, 0.64, -0.30, 0.74, 0.84, -3.43, 0.63
24845, 0.63, -0.30, 0.75, 0.98, -1.96, 0.35
24846, 0.64, -0.30, 0.73, 1.96, -0.56, 0.77
24847, 0.63, -0.30, 0.73, 1.26, -0.28, 0.84
24848, 0.63, -0.31, 0.74, 1.40, 0.21, 0.28
24849, 0.63, -0.31, 0.74, 1.12, 0.00, -0.07
24850, 0.63, -0.30, 0.74, 1.05, 0.14, -0.21
24851, 0.63, -0.30, 0.74, 1.26, 0.77, -0.21
24852, 0.62, -0.31, 0.74, 0.56, 0.14, -0.35
24853, 0.62, -0.30, 0.74, 0.77, 0.84, -0.56
24854, 0.62, -0.31, 0.74, 0.84, 0.77, -0.35
24855, 0.62, -0.30, 0.74, 0.84, 0.00, -0.28
24856, 0.63, -0.30, 0.75, 0.77, 0.14, -0.07
24857, 0.62, -0.30, 0.75, 0.70, 0.21, 0.07
24858, 0.62, -0.31, 0.74, 1.19, -0.70, 0.07
24859, 0.62, -0.30, 0.75, 1.40, -0.91, 0.84
24860, 0.62, -0.30, 0.75, 1.47, -0.98, 1.19
24861, 0.62, -0.30, 0.75, 1.61, -1.05, 0.91
24862, 0.62, -0.30, 0.74, 0.98, -1.12, 0.77
24863, 0.62, -0.30, 0.75, 0.98, -1.68, 0.84
24864, 0.62, -0.30, 0.75, 1.40, -1.61, 0.91
24865, 0.62, -0.30, 0.75, 1.33, -2.31, 0.70
24866, 0.63, -0.30, 0.75, 1.05, -2.03, 1.05
24867, 0.62, -0.31, 0.74, 1.82, -2.31, 1.47
24868, 0.62, -0.32, 0.74, 1.96, -4.41, 1.82
24869, 0.62, -0.31, 0.75, 2.38, -5.88, 3.99
24870, 0.62, -0.30, 0.75, 1.89, -6.09, 4.20
24871, 0.63, -0.29, 0.75, 0.63, -5.67, 2.94
24872, 0.63, -0.30, 0.74, -0.14, -4.83, 1.96
24873, 0.63, -0.30, 0.75, -1.19, -3.57, 0.98
24874, 0.63, -0.30, 0.74, -1.68, -2.17, -0.28
24875, 0.63, -0.30, 0.73, -1.61, -1.12, -1.05
24876, 0.63, -0.31, 0.73, -1.82, -1.33, -1.47
24877, 0.63, -0.32, 0.73, -1.19, -1.12, -1.33
24878, 0.63, -0.31, 0.74, -0.63, -0.98, -0.70
24879, 0.63, -0.31, 0.74, -0.14, -1.05, 0.00
24880, 0.63, -0.31, 0.74, 0.42, -1.96, 0.35
24881, 0.63, -0.31, 0.74, 0.91, -1.75, 0.70
24882, 0.63, -0.31, 0.74, 1.40, -1.68, 0.63
24883, 0.63, -0.30, 0.74, 0.35, -1.19, 0.42
24884, 0.63, -0.30, 0.74, -0.35, -0.84, -0.28
24885, 0.63, -0.31, 0.74, -0.42, -0.84, -0.63
24886, 0.63, -0.30, 0.74, -0.91, -0.56, -0.84
24887, 0.63, -0.30, 0.74, -0.77, -1.19, -0.91
24888, 0.63, -0.31, 0.74, -0.56, -0.63, -0.49
24889, 0.63, -0.31, 0.74, -0.21, -0.84, -0.28
24890, 0.63, -0.31, 0.74, -0.21, -1.19, 0.21
24891, 0.63, -0.31, 0.74, 0.28, -1.26, 0.14
24892, 0.63, -0.31, 0.74, 0.56, -1.61, 0.56
24893, 0.63, -0.31, 0.74, 0.98, -1.96, 0.49
24894, 0.63, -0.30, 0.74, 0.35, -1.96, 0.21
24895, 0.63, -0.30, 0.74, 0.42, -1.82, 0.49
24896, 0.63, -0.30, 0.74, 0.42, -1.75, 0.56
24897, 0.63, -0.30, 0.74, -0.35, -1.68, 0.14
24898, 0.63, -0.30, 0.74, 0.28, -2.10, 0.35
24899, 0.63, -0.31, 0.74, 0.07, -2.17, 0.35
24900, 0.63, -0.30, 0.75, 0.70, -0.28, 0.42
24901, 0.64, -0.31, 0.74, 1.40, -0.21, 0.70
24902, 0.63, -0.31, 0.73, 0.56, 0.07, 0.42
24903, 0.63, -0.31, 0.73, 0.49, -0.28, 0.21
24904, 0.63, -0.31, 0.74, 0.21, -0.70, 0.42
24905, 0.63, -0.31, 0.74, 0.63, -0.49, 0.14
24906, 0.63, -0.30, 0.74, 0.70, -0.21, 0.21
24907, 0.63, -0.31, 0.74, 1.33, -0.56, 0.28
24908, 0.63, -0.31, 0.74, 0.98, -0.42, 0.28
24909, 0.63, -0.31, 0.74, 0.91, 0.28, 0.14
24910, 0.63, -0.30, 0.74, 0.42, 0.56, 0.14
24911, 0.63, -0.31, 0.74, 0.42, 0.07, 0.42
24912, 0.63, -0.30, 0.74, 0.91, 0.14, 0.14
24913, 0.63, -0.30, 0.74, 0.70, -0.07, -0.07
24914, 0.63, -0.30, 0.74, 0.49, -0.49, 0.21
24915, 0.63, -0.31, 0.74, 0.63, -0.35, 0.28
24916, 0.62, -0.30, 0.74, 0.70, -0.07, 0.21
24917, 0.62, -0.30, 0.75, 0.77, -0.28, 0.00
24918, 0.63, -0.30, 0.74, 0.35, -0.35, 0.28
24919, 0.63, -0.30, 0.74, 0.07, -0.35, 0.35
24920, 0.63, -0.31, 0.74, 0.56, -0.14, 0.07
24921, 0.62, -0.30, 0.74, 0.28, 0.07, -0.07
24922, 0.62, -0.30, 0.74, 0.84, -0.63, 0.21
24923, 0.62, -0.30, 0.75, 1.12, -1.05, 0.63
24924, 0.63, -0.30, 0.74, 1.33, -1.19, 0.77
24925, 0.62, -0.30, 0.74, 1.33, -1.12, 0.70
24926, 0.62, -0.31, 0.74, 1.12, -1.82, 0.63
24927, 0.62, -0.30, 0.74, 0.91, -2.10, 0.42
24928, 0.63, -0.30, 0.75, 0.49, -2.80, 0.14
24929, 0.62, -0.30, 0.74, 0.14, -2.24, 0.21
24930, 0.62, -0.31, 0.74, 0.35, -2.31, 0.49
24931, 0.63, -0.31, 0.74, -0.42, -2.03, 0.56
24932, 0.63, -0.31, 0.74, -0.28, -2.17, 0.35
24933, 0.63, -0.30, 0.74, -0.77, -2.66, 0.00
24934, 0.63, -0.30, 0.74, -0.42, -3.01, -0.14
24935, 0.63, -0.31, 0.74, -0.63, -2.80, -0.14
24936, 0.63, -0.31, 0.74, -0.21, -2.38, -0.35
24937, 0.63, -0.30, 0.74, -0.14, -2.66, -0.35
24938, 0.63, -0.30, 0.74, -0.35, -2.59, -0.07
24939, 0.63, -0.31, 0.74, -0.49, -2.17, 0.00
24940, 0.63, -0.30, 0.74, -0.14, -2.10, -0.07
24941, 0.63, -0.30, 0.74, -0.07, -1.61, 0.00
24942, 0.63, -0.30, 0.74, -0.14, -1.68, 0.00
24943, 0.63, -0.30, 0.74, -0.14, -1.68, 0.00
24944, 0.63, -0.30, 0.74, -0.63, -1.61, -0.28
24945, 0.63, -0.30, 0.74, -0.07, -1.33, -0.21
24946, 0.63, -0.31, 0.74, -0.56, -1.12, -0.07
24947, 0.63, -0.31, 0.74, -0.21, -1.26, -0.14
24948, 0.63, -0.31, 0.74, -0.28, -1.54, 0.14
24949, 0.63, -0.30, 0.74, -0.07, -1.33, 0.14
24950, 0.63, -0.31, 0.74, 0.07, -1.40, 0.35
24951, 0.63, -0.31, 0.74, -0.14, -1.47, 0.28
24952, 0.63, -0.31, 0.74, 0.28, -1.68, 0.28
24953, 0.63, -0.31, 0.74, 0.35, -1.89, 0.35
24954, 0.63, -0.31, 0.74, 0.42, -1.26, 0.42
24955, 0.63, -0.31, 0.74, 0.21, -1.19, 0.49
24956, 0.63, -0.31, 0.74, 0.28, -1.61, 0.07
24957, 0.63, -0.30, 0.73, 0.49, -1.82, 0.35
24958, 0.63, -0.31, 0.74, 0.77, -1.82, 0.42
24959, 0.63, -0.30, 0.74, 0.07, -1.61, 0.21
24960, 0.63, -0.30, 0.73, -0.07, -2.03, 0.14
24961, 0.63, -0.30, 0.74, 0.49, -0.77, 0.63
24962, 0.64, -0.30, 0.73, 0.84, 0.14, 0.70
24963, 0.63, -0.31, 0.73, 0.63, 0.28, 0.49
24964, 0.63, -0.31, 0.73, 0.56, -0.21, 0.21
24965, 0.63, -0.30, 0.74, 0.14, -0.35, -0.07
24966, 0.63, -0.30, 0.74, 0.42, -0.21, 0.14
24967, 0.63, -0.31, 0.74, 0.49, 0.07, 0.07
24968, 0.63, -0.30, 0.73, 1.12, 0.49, 0.14
24969, 0.63, -0.31, 0.74, 0.70, -0.14, 0.21
24970, 0.63, -0.30, 0.74, 0.28, -0.07, 0.14
24971, 0.63, -0.30, 0.74, 0.21, 0.77, 0.14
24972, 0.63, -0.30, 0.74, 0.63, 0.21, 0.07
24973, 0.63, -0.30, 0.74, 0.49, 0.14, 0.14
24974, 0.63, -0.30, 0.74, 0.49, 0.14, 0.28
24975, 0.63, -0.30, 0.74, 0.70, -0.28, 0.28
24976, 0.62, -0.30, 0.74, 0.70, -0.77, 0.42
24977, 0.63, -0.30, 0.74, 0.98, -0.70, 0.56
24978, 0.63, -0.31, 0.74, 0.63, -0.56, 0.42
24979, 0.63, -0.30, 0.74, 0.42, -0.63, 0.56
24980, 0.62, -0.30, 0.74, 0.63, -0.42, 0.56
24981, 0.62, -0.30, 0.74, 0.49, -0.63, 0.42
24982, 0.62, -0.30, 0.74, 0.56, -0.63, 0.56
24983, 0.62, -0.30, 0.74, 0.56, -0.56, 0.63
24984, 0.63, -0.31, 0.74, 1.26, -1.05, 0.63
24985, 0.62, -0.30, 0.74, 1.33, -1.47, 0.77
24986, 0.62, -0.31, 0.74, 1.47, -1.68, 0.70
24987, 0.62, -0.31, 0.74, 0.84, -2.31, 0.56
24988, 0.62, -0.30, 0.74, 0.07, -2.94, 0.28
24989, 0.63, -0.31, 0.74, -0.07, -2.94, 0.21
24990, 0.62, -0.31, 0.74, 0.35, -3.01, 0.21
24991, 0.63, -0.31, 0.74, -0.42, -2.59, 0.28
24992, 0.63, -0.30, 0.74, -0.14, -2.38, 0.28
24993, 0.63, -0.30, 0.74, -0.63, -2.31, 0.00
24994, 0.63, -0.30, 0.74, -0.49, -2.45, -0.14
24995, 0.63, -0.30, 0.74, -0.42, -2.45, -0.14
24996, 0.63, -0.30, 0.74, -0.07, -2.45, -0.07
24997, 0.63, -0.30, 0.74, 0.00, -2.59, 0.00
24998, 0.64, -0.30, 0.74, -0.49, -2.45, 0.14
24999, 0.63, -0.31, 0.74, -0.35, -2.24, 0.21
25000, 0.63, -0.31, 0.73, -0.28, -2.24, 0.00
25001, 0.63, -0.31, 0.73, -0.07, -2.59, 0.91
25002, 0.63, -0.31, 0.74, 0.49, -3.85, 1.82
25003, 0.63, -0.30, 0.74, 0.42, -3.01, 2.10
25004, 0.63, -0.30, 0.74, -0.21, -2.45, 1.75
25005, 0.63, -0.30, 0.73, -1.26, -2.03, 0.70
25006, 0.63, -0.31, 0.73, -1.33, -1.89, -0.42
25007, 0.63, -0.31, 0.73, -1.75, -1.75, -0.91
25008, 0.63, -0.32, 0.73, -1.40, -2.17, -1.05
25009, 0.64, -0.31, 0.73, -1.05, -0.91, -0.84
25010, 0.63, -0.31, 0.73, -0.91, -1.26, -0.42
25011, 0.64, -0.31, 0.73, -0.84, -1.47, 0.00
25012, 0.63, -0.31, 0.73, -0.21, -1.68, 0.49
25013, 0.63, -0.30, 0.73, 0.56, -2.17, 0.91
25014, 0.63, -0.30, 0.73, 0.84, -2.45, 0.84
25015, 0.64, -0.30, 0.73, 0.42, -2.10, 0.42
25016, 0.63, -0.31, 0.73, 0.28, -1.82, -0.14
25017, 0.64, -0.30, 0.74, 2.66, 0.42, 0.56
25018, 0.64, -0.30, 0.73, 0.77, 0.42, 0.28
25019, 0.64, -0.31, 0.73, 0.07, 0.98, -0.07
25020, 0.63, -0.31, 0.73, -0.14, 1.33, -0.56
25021, 0.63, -0.31, 0.73, 0.21, 1.33, -0.63
25022, 0.64, -0.31, 0.73, -0.42, 1.96, -0.91
25023, 0.63, -0.31, 0.73, -0.07, 2.45, -1.68
25024, 0.63, -0.31, 0.73, -0.21, 2.80, -1.96
25025, 0.63, -0.31, 0.73, 0.07, 2.03, -1.19
25026, 0.63, -0.31, 0.74, 0.35, 1.82, -0.21
25027, 0.63, -0.30, 0.74, 0.14, 2.31, -0.35
25028, 0.62, -0.30, 0.74, -0.21, 2.17, -0.49
25029, 0.62, -0.31, 0.74, 0.35, 1.33, -0.21
25030, 0.63, -0.30, 0.74, 0.21, 1.26, -0.28
25031, 0.63, -0.30, 0.74, -0.28, 1.75, -0.28
25032, 0.62, -0.31, 0.74, -0.98, 1.54, -0.07
25033, 0.62, -0.31, 0.74, -0.49, 1.89, -0.07
25034, 0.63, -0.31, 0.74, -0.49, 1.33, -0.56
25035, 0.62, -0.30, 0.74, 0.21, 0.84, -0.14
25036, 0.62, -0.30, 0.74, 0.21, 0.91, -0.14
25037, 0.62, -0.31, 0.74, 0.35, 0.35, -0.28
25038, 0.62, -0.31, 0.74, 1.26, 0.35, 0.14
25039, 0.62, -0.31, 0.74, 1.26, -0.07, -0.21
25040, 0.61, -0.31, 0.74, 0.70, -1.47, -0.28
25041, 0.61, -0.31, 0.74, 0.42, -2.31, 0.14
25042, 0.62, -0.31, 0.75, 0.70, -3.64, 0.84
25043, 0.62, -0.31, 0.75, 0.77, -3.92, 1.05
25044, 0.62, -0.30, 0.74, 0.70, -4.06, 1.05
25045, 0.62, -0.30, 0.75, 0.42, -4.20, 1.05
25046, 0.62, -0.30, 0.74, -0.28, -3.50, -0.07
25047, 0.63, -0.30, 0.74, -0.70, -3.36, -0.63
25048, 0.63, -0.31, 0.74, -1.05, -2.73, -0.49
25049, 0.63, -0.31, 0.74, -0.77, -2.17, -0.56
25050, 0.63, -0.31, 0.74, 0.00, -3.22, 0.07
25051, 0.63, -0.31, 0.74, 0.77, -3.01, 0.63
25052, 0.63, -0.31, 0.74, 0.63, -2.73, 0.70
25053, 0.63, -0.31, 0.74, 0.63, -2.31, 0.42
25054, 0.63, -0.30, 0.74, 0.42, -1.47, 0.21
25055, 0.63, -0.30, 0.74, 0.84, -1.26, 0.35
25056, 0.63, -0.30, 0.74, 0.42, -1.47, 0.28
25057, 0.63, -0.31, 0.74, 0.21, -1.89, 0.07
25058, 0.63, -0.31, 0.74, 0.42, -1.82, 0.42
25059, 0.63, -0.31, 0.74, 0.35, -1.68, 0.63
25060, 0.62, -0.31, 0.74, 0.49, -1.68, 0.56
25061, 0.63, -0.31, 0.74, 0.21, -1.96, 0.42
25062, 0.63, -0.30, 0.74, 0.35, -2.24, 0.49
25063, 0.63, -0.30, 0.74, 0.28, -1.75, 0.77
25064, 0.63, -0.31, 0.74, 0.00, -2.17, 0.63
25065, 0.63, -0.31, 0.74, 0.63, -1.33, -0.07
25066, 0.63, -0.30, 0.74, 0.56, -1.68, 0.07
25067, 0.63, -0.31, 0.73, 0.70, -1.68, 0.14
25068, 0.63, -0.31, 0.74, 0.49, -1.96, 0.49
25069, 0.63, -0.31, 0.74, 0.56, -1.75, 0.42
25070, 0.63, -0.30, 0.74, 0.49, -1.05, 0.70
25071, 0.63, -0.31, 0.74, 0.56, -1.40, 0.49
25072, 0.63, -0.30, 0.74, 0.63, -1.40, 0.42
25073, 0.63, -0.31, 0.74, 0.28, -1.82, 0.14
25074, 0.63, -0.30, 0.74, 0.28, -1.40, 0.35
25075, 0.63, -0.30, 0.74, 0.07, -1.75, 0.14
25076, 0.63, -0.31, 0.73, -0.21, -1.61, 0.07
25077, 0.63, -0.30, 0.74, -0.28, -0.91, 0.07
25078, 0.63, -0.30, 0.74, 0.84, -0.07, 0.35
25079, 0.63, -0.30, 0.74, 0.42, -0.14, 0.42
25080, 0.63, -0.31, 0.74, 0.49, 0.14, 0.35
25081, 0.63, -0.30, 0.74, 0.70, 0.42, 0.35
25082, 0.63, -0.30, 0.74, 0.77, -0.42, 0.35
25083, 0.63, -0.30, 0.74, 0.70, -0.28, 0.35
25084, 0.63, -0.30, 0.74, 1.19, 0.28, 0.35
25085, 0.63, -0.30, 0.74, 0.98, -0.14, 0.14
25086, 0.63, -0.30, 0.74, 0.49, 0.28, 0.14
25087, 0.63, -0.31, 0.74, 0.56, 0.49, 0.07
25088, 0.62, -0.30, 0.74, 0.00, 0.49, -0.28
25089, 0.63, -0.30, 0.74, 0.21, 0.00, -0.21
25090, 0.62, -0.31, 0.74, 0.77, -0.07, 0.35
25091, 0.63, -0.31, 0.74, 0.63, -0.35, 0.21
25092, 0.63, -0.30, 0.74, 1.26, -0.35, 0.35
25093, 0.62, -0.30, 0.74, 0.98, 0.07, 0.49
25094, 0.63, -0.30, 0.74, 0.84, 0.07, 0.56
25095, 0.62, -0.30, 0.74, 0.84, -0.35, 0.63
25096, 0.62, -0.31, 0.74, 0.56, 0.00, 0.49
25097, 0.62, -0.30, 0.74, 1.05, -0.35, 0.42
25098, 0.62, -0.30, 0.74, 0.98, -0.49, 0.56
25099, 0.62, -0.30, 0.75, 0.56, -0.84, 0.42
25100, 0.62, -0.31, 0.74, 0.98, -0.49, 0.49
25101, 0.62, -0.30, 0.75, 0.70, -0.28, 0.49
25102, 0.62, -0.30, 0.74, 0.63, -0.63, 0.42
25103, 0.62, -0.30, 0.74, 0.77, -0.77, 0.56
25104, 0.62, -0.30, 0.74, 0.91, -1.05, 0.56
25105, 0.62, -0.31, 0.74, 0.91, -1.54, 0.42
25106, 0.62, -0.31, 0.74, 0.84, -2.17, 0.49
25107, 0.62, -0.31, 0.75, 1.26, -2.52, 0.70
25108, 0.62, -0.31, 0.75, 0.56, -2.45, 0.42
25109, 0.62, -0.30, 0.74, 0.28, -2.17, 0.42
25110, 0.62, -0.31, 0.74, -0.14, -1.89, 0.35
25111, 0.63, -0.30, 0.75, 0.07, -1.75, 0.28
25112, 0.62, -0.31, 0.74, -0.70, -2.03, 0.21
25113, 0.62, -0.31, 0.74, -0.35, -2.10, -0.07
25114, 0.62, -0.30, 0.74, -0.49, -2.80, -0.07
25115, 0.63, -0.30, 0.74, -0.42, -2.80, 0.28
25116, 0.63, -0.31, 0.74, -0.07, -3.15, 0.21
25117, 0.62, -0.30, 0.74, -0.07, -2.73, 0.00
25118, 0.63, -0.30, 0.74, -0.07, -2.45, 0.07
25119, 0.63, -0.30, 0.74, -0.35, -2.45, 0.07
25120, 0.63, -0.30, 0.74, -0.28, -2.10, -0.21
25121, 0.63, -0.30, 0.74, -0.35, -2.38, -0.14
25122, 0.63, -0.30, 0.74, -17.92, -2.03, -0.14
25123, 0.63, -0.30, 0.74, -0.14, -1.75, -0.07
25124, 0.63, -0.30, 0.74, -0.35, -1.61, -0.07
25125, 0.63, -0.30, 0.74, 0.07, -1.54, 0.07
25126, 0.63, -0.30, 0.74, -0.35, -1.68, -0.07
25127, 0.63, -0.30, 0.74, 0.00, -1.40, 0.14
25128, 0.63, -0.31, 0.74, -0.07, -1.12, 0.28
25129, 0.63, -0.31, 0.74, -0.07, -0.98, 0.00
25130, 0.63, -0.30, 0.74, 0.21, -1.82, 0.14
25131, 0.63, -0.31, 0.74, -17.85, -1.68, 0.14
25132, 0.63, -0.30, 0.74, -0.14, -1.47, 0.14
25133, 0.63, -0.30, 0.73, -0.07, -1.47, 0.00
25134, 0.63, -0.31, 0.74, 0.14, -1.75, 0.14
25135, 0.63, -0.30, 0.74, 0.28, -1.75, 0.14
25136, 0.63, -0.30, 0.75, 0.00, 17.36, 0.07
25137, 0.64, -0.30, 0.74, 1.54, 0.35, 0.70
25138, 0.63, -0.30, 0.74, 0.42, 0.28, 0.63
25139, 0.63, -0.30, 0.74, 0.28, 0.42, 0.42
25140, 0.63, -0.30, 0.74, 0.28, -0.28, -0.07
25141, 0.63, -0.30, 0.74, 0.21, -0.07, 17.85
25142, 0.63, -0.30, 0.74, 0.70, -0.21, 0.07
25143, 0.63, -0.30, 0.74, 0.77, 0.28, 0.07
25144, 0.63, -0.31, 0.74, 0.63, 0.42, 0.28
25145, 0.63, -0.30, 0.74, 0.77, 0.56, 0.07
25146, 0.63, -0.30, 0.74, 0.77, 0.63, 0.21
25147, 0.62, -0.31, 0.74, 0.70, 0.35, 0.35
25148, 0.62, -0.30, 0.74, 0.63, 0.00, 0.28
25149, 0.62, -0.30, 0.74, 0.63, -0.14, 0.14
25150, 0.62, -0.31, 0.75, 0.70, -0.07, 0.21
25151, 0.62, -0.30, 0.74, 0.70, -0.07, 0.28
25152, 0.62, -0.30, 0.74, 1.26, -0.21, 0.35
25153, 0.62, -0.30, 0.74, 0.21, -0.21, 0.14
25154, 0.62, -0.30, 0.75, 0.56, 0.07, 0.42
25155, 0.62, -0.30, 0.74, 0.56, -0.35, 0.42
25156, 0.62, -0.30, 0.74, 0.84, -0.49, 0.42
25157, 0.62, -0.30, 0.75, 1.19, -0.77, 0.77
25158, 0.62, -0.30, 0.74, 1.19, -1.19, 0.77
25159, 0.62, -0.31, 0.74, 0.91, -1.68, 0.49
25160, 0.62, -0.31, 0.74, 0.28, -2.17, 0.35
25161, 0.62, -0.31, 0.74, 0.35, -2.87, 0.28
25162, 0.62, -0.30, 0.75, 0.14, -3.78, 0.14
25163, 0.62, -0.31, 0.74, 0.00, -3.43, 0.21
25164, 0.62, -0.30, 0.74, -0.49, -2.66, 0.21
25165, 0.62, -0.30, 0.74, -0.35, -2.45, 0.00
25166, 0.62, -0.30, 0.74, -1.05, -2.03, -0.07
25167, 0.62, -0.30, 0.74, -0.63, -2.66, -0.07
25168, 0.63, -0.30, 0.74, -0.49, -2.94, -17.92
25169, 0.62, -0.31, 0.74, -0.35, -4.13, 0.07
25170, 0.63, -0.30, 0.73, 0.00, -4.69, 1.33
25171, 0.62, -0.31, 0.74, 1.33, -6.16, 3.01
25172, 0.63, -0.30, 0.74, 2.10, -6.09, 3.36
25173, 0.63, -0.31, 0.73, 1.68, -6.79, 3.43
25174, 0.63, -0.29, 0.74, 1.33, -6.09, 4.34
25175, 0.63, -0.30, 0.74, 0.35, -5.18, 4.48
25176, 0.64, -0.30, 0.73, -0.70, -4.62, 3.57
25177, 0.63, -0.31, 0.73, -1.05, -5.53, 3.50
25178, 0.63, -0.30, 0.74, -0.91, -5.32, 3.92
25179, 0.64, -0.30, 0.74, -1.96, -5.04, 3.85
25180, 0.65, -0.29, 0.73, -3.22, 0.35, 1.96
25181, 0.63, -0.32, 0.72, -2.10, -1.19, 0.42
25182, 0.62, -0.33, 0.72, -0.21, -4.97, 1.68
25183, 0.63, -0.32, 0.72, 0.49, -4.83, 2.17
25184, 0.65, -0.32, 0.73, -1.19, -3.57, 2.17
25185, 0.64, -0.31, 0.72, -2.03, -4.27, 3.01
25186, 0.64, -0.31, 0.73, -3.08, -1.89, 2.10
25187, 0.64, -0.32, 0.72, -1.96, -0.91, 0.49
25188, 0.64, -0.32, 0.72, -2.45, -1.12, -0.98
25189, 0.65, -0.32, 0.71, -2.80, 0.28, -1.89
25190, 0.64, -0.32, 0.72, -1.40, 0.91, -2.73
25191, 0.64, -0.33, 0.72, -1.33, 1.19, -2.73
25192, 0.64, -0.33, 0.72, -1.82, 1.54, -2.45
25193, 0.64, -0.32, 0.72, -1.19, 1.54, -1.33
25194, 0.64, -0.32, 0.72, -0.28, 1.96, -0.70
25195, 0.64, -0.32, 0.72, 0.49, 1.47, 0.07
25196, 0.63, -0.32, 0.73, 0.49, 1.12, 0.35
25197, 0.63, -0.32, 0.73, 1.26, 0.91, -0.42
25198, 0.63, -0.32, 0.73, 0.70, 1.26, -0.28
25199, 0.63, -0.32, 0.73, 0.28, 0.84, -0.14
25200, 0.63, -0.32, 0.73, 0.35, 0.56, -0.14
25201, 0.63, -0.32, 0.73, 0.56, 0.14, 0.00
25202, 0.63, -0.32, 0.73, 0.21, 0.35, 0.00
25203, 0.63, -0.32, 0.73, 0.35, -0.07, 0.35
25204, 0.63, -0.32, 0.73, 0.21, 0.00, 0.56
25205, 0.63, -0.32, 0.73, 0.70, -0.21, 0.21
25206, 0.63, -0.32, 0.73, 1.05, -0.70, 0.63
25207, 0.63, -0.32, 0.73, 1.05, -0.49, 1.05
25208, 0.63, -0.32, 0.73, 0.77, -0.84, 0.77
25209, 0.63, -0.32, 0.73, 0.42, -0.98, 0.21
25210, 0.63, -0.32, 0.73, 0.28, -2.17, 0.28
25211, 0.63, -0.32, 0.73, 0.21, -1.96, 0.21
25212, 0.63, -0.33, 0.73, 0.28, -2.66, -0.14
25213, 0.63, -0.32, 0.73, -0.35, -2.17, 0.07
25214, 0.63, -0.32, 0.73, -0.42, -2.52, 0.00
25215, 0.63, -0.32, 0.73, -1.12, -2.45, -0.21
25216, 0.63, -0.32, 0.73, -0.77, -2.52, -0.14
25217, 0.63, -0.32, 0.73, -0.91, -2.45, -0.14
25218, 0.63, -0.32, 0.73, -0.70, -2.17, 0.00
25219, 0.63, -0.32, 0.73, -0.70, -2.45, 0.21
25220, 0.63, -0.32, 0.73, -0.49, -2.59, 0.21
25221, 0.64, -0.32, 0.72, -0.35, -2.24, -0.21
25222, 0.64, -0.32, 0.73, -0.28, -2.38, -0.21
25223, 0.64, -0.32, 0.73, -0.63, -2.10, 0.35
25224, 0.63, -0.32, 0.73, -0.42, -1.75, 0.63
25225, 0.63, -0.32, 0.73, -0.35, -1.47, 0.49
25226, 0.64, -0.32, 0.73, -0.56, -2.17, 0.00
25227, 0.63, -0.33, 0.73, 0.14, -1.89, 0.07
25228, 0.63, -0.32, 0.72, 0.28, -1.75, 0.49
25229, 0.64, -0.32, 0.73, -0.42, -1.75, 0.35
25230, 0.63, -0.32, 0.73, 0.00, -2.03, 0.70
25231, 0.64, -0.32, 0.72, -0.14, -2.10, 0.42
25232, 0.64, -0.32, 0.72, 0.14, -2.03, 0.07
25233, 0.64, -0.33, 0.72, 0.14, -1.96, -0.42
25234, 0.64, -0.31, 0.73, 1.26, 0.63, -0.28
25235, 0.64, -0.32, 0.72, 0.84, 1.19, -0.63
25236, 0.64, -0.32, 0.72, 0.00, 1.75, -0.63
25237, 0.64, -0.32, 0.72, 0.21, 2.24, -1.61
25238, 0.64, -0.32, 0.73, 0.07, 2.17, -2.31
25239, 0.64, -0.32, 0.73, 0.14, 2.52, -1.33
25240, 0.64, -0.31, 0.73, 0.49, 2.87, -1.68
25241, 0.64, -0.32, 0.73, 0.77, 3.15, -1.75
25242, 0.63, -0.32, 0.73, 2.03, 3.08, -1.54
25243, 0.63, -0.32, 0.73, 1.61, 3.92, -1.54
25244, 0.63, -0.31, 0.74, 1.33, 4.41, -1.61
25245, 0.62, -0.32, 0.73, 1.33, 4.06, -1.89
25246, 0.63, -0.32, 0.73, 1.12, 3.99, -2.17
25247, 0.63, -0.32, 0.74, 0.91, 3.71, -2.24
25248, 0.62, -0.32, 0.74, 0.56, 3.92, -2.17
25249, 0.62, -0.32, 0.74, 0.63, 3.08, -1.89
25250, 0.61, -0.31, 0.74, 0.98, 2.45, -1.47
25251, 0.61, -0.32, 0.74, 1.26, 1.12, -0.84
25252, 0.62, -0.31, 0.74, 2.24, 0.42, -0.56
25253, 0.62, -0.31, 0.75, 2.73, -0.21, -0.07
25254, 0.62, -0.31, 0.74, 2.31, 0.63, 0.21
25255, 0.60, -0.32, 0.74, 2.94, -1.26, 0.77
25256, 0.60, -0.32, 0.74, 3.71, -3.99, 1.33
25257, 0.61, -0.31, 0.75, 3.99, -5.39, 1.96
25258, 0.61, -0.31, 0.75, 4.06, -6.30, 2.38
25259, 0.61, -0.31, 0.75, 2.73, -6.72, 2.10
25260, 0.61, -0.31, 0.74, 1.40, -7.42, 1.47
25261, 0.63, -0.31, 0.75, 0.98, -5.95, 1.12
25262, 0.63, -0.30, 0.74, 0.56, -4.90, 1.40
25263, 0.62, -0.30, 0.74, -0.28, -4.97, 0.77
25264, 0.63, -0.31, 0.74, 0.00, -4.90, 0.49
25265, 0.63, -0.30, 0.74, 0.00, -3.71, 0.84
25266, 0.63, -0.31, 0.73, 0.42, -3.85, 0.77
25267, 0.64, -0.31, 0.73, 0.28, -3.29, 0.91
25268, 0.63, -0.30, 0.75, -0.56, -2.94, 0.91
25269, 0.65, -0.29, 0.74, 1.40, 0.28, 1.19
25270, 0.63, -0.31, 0.73, 0.00, 0.56, 1.05
25271, 0.63, -0.31, 0.73, 0.21, 0.98, 0.42
25272, 0.63, -0.31, 0.73, 0.35, 0.14, -0.14
25273, 0.63, -0.30, 0.74, 0.35, 17.64, 0.07
25274, 0.63, -0.30, 0.73, 0.63, 0.56, 0.28
25275, 0.63, -0.31, 0.73, 0.91, 0.91, -0.07
25276, 0.63, -0.31, 0.73, 1.05, 0.63, -0.14
25277, 0.63, -0.31, 0.74, 0.84, 1.19, 0.07
25278, 0.63, -0.31, 0.74, -0.07, 1.40, -17.92
25279, 0.62, -0.31, 0.74, -0.21, 0.77, -0.42
25280, 0.62, -0.31, 0.74, 0.14, 0.28, -0.21
25281, 0.62, -0.31, 0.74, 0.35, 0.00, 0.21
25282, 0.62, -0.31, 0.74, 0.98, -0.56, 0.28
25283, 0.62, -0.31, 0.74, 1.26, -0.28, 0.63
25284, 0.62, -0.31, 0.74, 0.98, -0.56, 0.49
25285, 0.62, -0.31, 0.74, 1.12, -1.33, 0.49
25286, 0.62, -0.31, 0.74, 0.77, -1.89, 0.28
25287, 0.62, -0.31, 0.74, 0.28, -2.87, -0.14
25288, 0.62, -0.31, 0.74, -0.70, -3.43, -0.63
25289, 0.62, -0.31, 0.74, -0.98, -3.15, -0.49
25290, 0.63, -0.31, 0.74, -0.91, -3.01, -0.35
25291, 0.63, -0.30, 0.74, -0.28, -2.59, -0.77
25292, 0.63, -0.30, 0.74, -0.49, -1.40, -1.40
25293, 0.63, -0.31, 0.73, -0.42, -2.31, -1.47
25294, 0.63, -0.31, 0.74, -0.28, -1.61, -1.40
25295, 0.63, -0.31, 0.74, 0.21, -2.17, -1.40
25296, 0.63, -0.31, 0.74, 0.14, -1.54, -1.61
25297, 0.63, -0.31, 0.73, 0.14, -2.10, -1.12
25298, 0.64, -0.30, 0.74, -0.35, 0.00, -1.26
25299, 0.63, -0.30, 0.73, 0.42, 0.21, -1.33
25300, 0.63, -0.30, 0.73, 0.56, -0.84, -0.70
25301, 0.63, -0.30, 0.73, 1.05, -1.26, -0.28
25302, 0.63, -0.30, 0.74, 0.70, -1.96, -0.07
25303, 0.63, -0.30, 0.74, 3.43, -1.12, 0.28
25304, 0.63, -0.31, 0.74, 3.43, -1.40, -0.28
25305, 0.62, -0.30, 0.73, 3.36, -0.28, 0.14
25306, 0.62, -0.30, 0.74, 2.52, -0.77, 0.42
25307, 0.63, -0.30, 0.74, 2.03, -1.47, 0.35
25308, 0.63, -0.29, 0.74, 1.40, -1.05, 0.77
25309, 0.63, -0.30, 0.74, 1.54, -1.47, 1.33
25310, 0.62, -0.30, 0.74, 1.61, -1.96, 1.61
25311, 0.63, -0.29, 0.74, 1.89, -1.40, 1.96
25312, 0.63, -0.30, 0.74, 1.61, -1.19, 1.61
25313, 0.63, -0.30, 0.74, 1.12, -0.91, 1.12
25314, 0.62, -0.30, 0.74, 1.12, -1.40, 1.12
25315, 0.63, -0.30, 0.74, 0.91, -1.12, 1.26
25316, 0.62, -0.30, 0.74, 1.33, -1.54, 1.33
25317, 0.63, -0.29, 0.74, 1.54, -1.26, 1.96
25318, 0.63, -0.30, 0.74, 1.26, -0.91, 1.40
25319, 0.62, -0.30, 0.73, 1.33, -0.49, 1.40
25320, 0.62, -0.30, 0.74, 1.40, -1.82, 1.26
25321, 0.63, -0.30, 0.74, 0.91, -1.96, 1.12
25322, 0.63, -0.30, 0.74, 0.35, -3.15, 0.42
25323, 0.63, -0.30, 0.74, -0.56, -3.43, 0.00
25324, 0.63, -0.30, 0.74, -0.63, -2.80, -0.28
25325, 0.63, -0.30, 0.74, -0.70, -3.08, -0.42
25326, 0.63, -0.30, 0.74, -0.77, -3.29, -0.49
25327, 0.63, -0.30, 0.74, -0.84, -3.01, -0.28
25328, 0.63, -0.30, 0.74, -0.42, -3.01, 0.00
25329, 0.63, -0.30, 0.74, -0.21, -2.45, 0.28
25330, 0.64, -0.30, 0.74, 0.00, -2.10, 0.28
25331, 0.63, -0.30, 0.73, 0.21, -2.52, 0.07
25332, 0.63, -0.30, 0.73, 0.28, -2.59, -0.07
25333, 0.64, -0.30, 0.74, -0.63, -1.96, 0.14
25334, 0.63, -0.30, 0.74, -0.28, -1.40, 0.00
25335, 0.63, -0.29, 0.75, 0.42, -0.49, -0.14
25336, 0.64, -0.29, 0.73, 1.47, -0.07, 0.77
25337, 0.63, -0.30, 0.73, 0.56, -0.21, 0.70
25338, 0.63, -0.30, 0.73, 0.42, -0.07, 0.77
25339, 0.63, -0.30, 0.73, 0.77, -0.42, 0.63
25340, 0.63, -0.30, 0.74, 0.84, -1.05, 0.77
25341, 0.63, -0.30, 0.74, 1.33, -0.91, 0.77
25342, 0.63, -0.30, 0.73, 1.47, -0.91, 0.42
25343, 0.63, -0.30, 0.73, 1.33, -1.19, 0.77
25344, 0.64, -0.30, 0.74, 0.84, -0.77, 0.70
25345, 0.64, -0.30, 0.74, 0.63, -0.42, 0.63
25346, 0.63, -0.30, 0.74, 0.56, -0.28, 0.49
25347, 0.63, -0.30, 0.74, 1.12, -0.35, 0.56
25348, 0.63, -0.30, 0.74, 0.63, -0.98, 0.42
25349, 0.63, -0.30, 0.74, 0.42, -0.49, 0.42
25350, 0.63, -0.30, 0.74, 1.19, -0.70, 0.35
25351, 0.63, -0.30, 0.74, 1.19, -0.70, 0.42
25352, 0.63, -0.30, 0.74, 1.19, -0.56, 0.63
25353, 0.63, -0.30, 0.73, 0.77, -0.49, 0.56
25354, 0.62, -0.30, 0.74, 0.63, -1.47, 0.35
25355, 0.63, -0.30, 0.74, 0.21, -2.24, 0.21
25356, 0.63, -0.30, 0.74, -0.21, -2.66, 0.00
25357, 0.63, -0.30, 0.74, -0.21, -2.87, -0.07
