t,ax,ay,az,gx,gy,gz
11219, 0.72, -0.38, 0.61, 1.40, 0.49, 0.84
11220, 0.72, -0.38, 0.61, 2.24, 0.63, 0.70
11221, 0.72, -0.38, 0.61, 2.03, 0.35, 0.63
11222, 0.72, -0.38, 0.61, 2.17, 0.14, 1.19
11223, 0.72, -0.37, 0.61, 1.26, 0.14, 1.19
11224, 0.71, -0.37, 0.61, 0.91, -0.49, 0.91
11225, 0.72, -0.37, 0.61, 2.38, -0.63, 1.12
11226, 0.72, -0.37, 0.61, 1.75, -0.14, 0.84
11227, 0.71, -0.38, 0.61, 1.54, 0.00, 0.98
11228, 0.72, -0.38, 0.61, 2.38, -0.70, 1.05
11229, 0.71, -0.37, 0.61, 1.89, -0.14, 0.91
11230, 0.71, -0.37, 0.61, 2.17, 0.07, 1.47
11231, 0.71, -0.38, 0.61, 2.10, -0.63, 1.33
11232, 0.72, -0.38, 0.62, 1.89, -0.56, 0.77
11233, 0.71, -0.37, 0.61, 2.52, -0.21, 1.19
11234, 0.71, -0.37, 0.61, 3.08, -0.07, 1.12
11235, 0.71, -0.37, 0.61, 3.29, -0.21, 1.05
11236, 0.71, -0.37, 0.61, 2.87, -1.12, 0.63
11237, 0.71, -0.37, 0.61, 1.19, -2.10, 0.28
11238, 0.71, -0.38, 0.61, 0.77, -2.94, 0.00
11239, 0.72, -0.37, 0.61, 0.00, -3.29, -0.07
11240, 0.72, -0.37, 0.62, -0.42, -2.59, -0.28
11241, 0.72, -0.38, 0.62, -1.12, -1.96, -1.19
11242, 0.72, -0.38, 0.62, -0.84, -1.19, -0.98
11243, 0.71, -0.37, 0.61, -0.63, -1.89, -0.84
11244, 0.71, -0.37, 0.61, -0.77, -2.59, -0.49
11245, 0.72, -0.38, 0.62, -1.68, -2.38, -0.21
11246, 0.72, -0.38, 0.62, -0.70, -2.80, -0.77
11247, 0.71, -0.37, 0.61, -0.91, -2.38, -0.21
11248, 0.71, -0.37, 0.61, 0.21, -3.29, 0.35
11249, 0.72, -0.38, 0.61, -0.21, -3.36, 0.63
11250, 0.72, -0.37, 0.61, -1.19, -2.45, -0.14
11251, 0.72, -0.37, 0.61, -1.54, -1.68, -0.28
11252, 0.72, -0.37, 0.61, -1.47, -1.89, -0.42
11253, 0.72, -0.38, 0.61, -2.66, -2.24, -0.91
11254, 0.72, -0.37, 0.61, -2.17, -1.47, -0.56
11255, 0.72, -0.37, 0.61, -2.10, -1.75, -0.42
11256, 0.72, -0.38, 0.61, -3.22, -1.89, -1.05
11257, 0.72, -0.38, 0.60, -2.87, -1.47, -0.49
11258, 0.72, -0.37, 0.61, -1.40, -2.80, -0.56
11259, 0.73, -0.38, 0.61, -2.24, -1.61, 0.07
11260, 0.72, -0.38, 0.60, -3.36, -1.19, -0.49
11261, 0.72, -0.38, 0.60, -2.66, -1.75, -0.77
11262, 0.72, -0.38, 0.60, -1.05, -1.89, 0.00
11263, 0.72, -0.38, 0.60, -0.77, -1.89, 0.35
11264, 0.72, -0.38, 0.60, 0.49, -2.10, 0.63
11265, 0.72, -0.38, 0.63, 0.91, -1.19, 0.49
11266, 0.73, -0.37, 0.61, 2.45, 0.98, 1.05
11267, 0.73, -0.38, 0.60, 1.19, 1.19, 0.07
11268, 0.72, -0.38, 0.60, 1.12, 1.05, -0.70
11269, 0.71, -0.37, 0.60, 1.89, 1.75, -0.07
11270, 0.72, -0.37, 0.61, 2.87, 0.56, 0.21
11271, 0.72, -0.38, 0.61, 2.03, 0.14, 0.77
11272, 0.72, -0.38, 0.60, 2.10, -0.28, 0.77
11273, 0.73, -0.37, 0.62, 2.10, -0.98, -0.14
11274, 0.72, -0.38, 0.61, 1.96, 0.42, 0.56
11275, 0.71, -0.38, 0.61, 1.82, 1.40, 0.07
11276, 0.71, -0.38, 0.61, 2.52, 0.63, 0.49
11277, 0.71, -0.38, 0.61, 2.87, -0.28, 0.98
11278, 0.72, -0.37, 0.61, 2.31, -0.63, 1.26
11279, 0.71, -0.37, 0.61, 2.17, -0.56, 1.05
11280, 0.71, -0.37, 0.61, 1.96, 0.07, 1.12
11281, 0.72, -0.37, 0.62, 2.31, -0.21, 0.70
11282, 0.72, -0.38, 0.61, 0.91, 0.00, 0.28
11283, 0.71, -0.37, 0.61, 1.47, -0.70, 0.98
11284, 0.72, -0.37, 0.61, 1.12, -0.42, 0.98
11285, 0.71, -0.37, 0.62, 1.75, 0.42, 0.84
11286, 0.71, -0.37, 0.61, 2.10, 0.49, 1.47
11287, 0.71, -0.37, 0.61, 1.40, -0.28, 0.70
11288, 0.71, -0.38, 0.62, 3.57, -0.98, 1.19
11289, 0.71, -0.37, 0.61, 2.52, -0.42, 1.05
11290, 0.71, -0.37, 0.61, 2.38, -0.35, 1.26
11291, 0.71, -0.38, 0.62, 3.43, -2.38, 1.47
11292, 0.71, -0.38, 0.61, 2.31, -3.08, 1.05
11293, 0.71, -0.38, 0.61, 1.12, -4.06, 0.77
11294, 0.71, -0.37, 0.61, 0.07, -4.48, 0.28
11295, 0.72, -0.37, 0.62, -0.07, -4.27, -0.21
11296, 0.71, -0.37, 0.62, -0.56, -3.92, -0.84
11297, 0.72, -0.37, 0.62, -1.61, -3.50, -0.70
11298, 0.72, -0.37, 0.61, -0.91, -2.80, -0.07
11299, 0.72, -0.37, 0.61, -1.26, -2.24, -0.70
11300, 0.72, -0.38, 0.61, -0.98, -2.03, -0.63
11301, 0.71, -0.37, 0.61, -0.56, -2.10, -0.14
11302, 0.72, -0.37, 0.62, -0.21, -2.24, -0.42
11303, 0.72, -0.38, 0.61, -1.19, -2.10, -0.70
11304, 0.71, -0.38, 0.61, -1.33, -1.61, -0.56
11305, 0.72, -0.37, 0.61, -2.17, -1.61, -0.07
11306, 0.72, -0.37, 0.61, -1.54, -1.40, -0.14
11307, 0.72, -0.37, 0.61, -2.10, -1.33, -0.77
11308, 0.72, -0.38, 0.61, -2.24, -2.03, -0.63
11309, 0.72, -0.37, 0.61, -2.31, -1.61, 0.00
11310, 0.72, -0.38, 0.61, -1.40, -1.40, -0.14
11311, 0.73, -0.38, 0.61, -2.31, -2.24, -0.63
11312, 0.72, -0.37, 0.61, -2.03, -1.82, -0.07
11313, 0.72, -0.37, 0.61, -2.73, -1.33, 0.00
11314, 0.72, -0.38, 0.60, -2.38, -1.26, -0.35
11315, 0.72, -0.38, 0.61, -2.38, -1.40, -0.21
11316, 0.72, -0.38, 0.60, -3.22, -1.89, -0.14
11317, 0.72, -0.38, 0.61, -2.87, -2.03, 0.00
11318, 0.72, -0.38, 0.60, -2.03, -3.50, -0.42
11319, 0.72, -0.39, 0.60, -1.89, -2.03, -0.28
11320, 0.72, -0.38, 0.60, -1.40, -1.19, 0.63
11321, 0.72, -0.38, 0.60, -0.28, -1.89, 0.49
11322, 0.72, -0.38, 0.60, 0.56, -2.52, 0.70
11323, 0.72, -0.38, 0.60, 1.33, -2.31, 0.56
11324, 0.72, -0.38, 0.62, 1.19, -0.91, 0.77
11325, 0.73, -0.37, 0.60, 3.57, 1.68, 0.63
11326, 0.73, -0.38, 0.60, 2.10, 0.42, -0.28
11327, 0.71, -0.38, 0.60, 2.17, 0.14, 0.00
11328, 0.72, -0.38, 0.60, 2.45, 0.00, -0.07
11329, 0.72, -0.38, 0.61, 2.31, -0.28, 0.42
11330, 0.72, -0.38, 0.60, 2.45, -0.35, 0.56
11331, 0.72, -0.37, 0.61, 2.10, -0.84, 0.70
11332, 0.72, -0.37, 0.61, 1.61, -0.42, 0.42
11333, 0.72, -0.38, 0.60, 3.01, -0.42, 0.35
11334, 0.72, -0.38, 0.61, 1.40, 0.14, 0.21
11335, 0.72, -0.37, 0.61, 1.26, 1.12, 0.77
11336, 0.72, -0.37, 0.61, 2.38, 0.35, 0.84
11337, 0.71, -0.38, 0.61, 1.96, 0.35, 0.84
11338, 0.72, -0.37, 0.61, 1.19, 0.42, 0.35
11339, 0.71, -0.37, 0.61, 1.26, 0.14, 0.91
11340, 0.71, -0.38, 0.61, 1.19, -0.35, 0.63
11341, 0.72, -0.38, 0.61, 0.49, -0.21, 0.56
11342, 0.71, -0.37, 0.61, 1.54, -0.42, 0.84
11343, 0.72, -0.38, 0.61, 2.17, -0.84, 1.19
11344, 0.72, -0.38, 0.61, 2.03, -0.35, 1.12
11345, 0.71, -0.37, 0.61, 2.31, -0.63, 1.26
11346, 0.72, -0.37, 0.62, 2.10, -1.54, 1.19
11347, 0.72, -0.38, 0.62, 1.47, -0.98, 1.26
11348, 0.71, -0.37, 0.62, 2.45, -1.19, 1.05
11349, 0.72, -0.37, 0.61, 1.54, -0.42, 0.91
11350, 0.71, -0.37, 0.61, 1.12, -0.56, 0.77
11351, 0.71, -0.37, 0.61, 2.17, -0.35, 0.49
11352, 0.71, -0.37, 0.61, 2.10, 0.56, 0.56
11353, 0.71, -0.37, 0.61, 3.36, -0.84, 1.05
11354, 0.71, -0.38, 0.61, 1.47, -1.40, 0.84
11355, 0.70, -0.39, 0.60, 3.15, -5.60, 2.31
11356, 0.69, -0.37, 0.62, 4.62, -10.36, 4.90
11357, 0.71, -0.37, 0.62, 3.64, -12.32, 2.73
11358, 0.71, -0.39, 0.62, 0.84, -15.68, 4.20
11359, 0.74, -0.37, 0.62, -3.29, -13.44, 4.55
11360, 0.74, -0.36, 0.62, -2.94, -9.17, 0.98
11361, 0.72, -0.36, 0.61, -2.24, -7.98, -0.98
11362, 0.73, -0.37, 0.60, -5.04, -8.05, -0.77
11363, 0.75, -0.36, 0.60, -8.89, -6.23, -4.90
11364, 0.75, -0.36, 0.60, -12.25, 0.42, -7.42
11365, 0.73, -0.37, 0.59, -10.43, 0.84, -6.51
11366, 0.73, -0.39, 0.59, -9.52, -0.84, -7.63
11367, 0.73, -0.39, 0.59, -8.47, 0.00, -6.09
11368, 0.74, -0.36, 0.60, -9.94, 0.91, -6.79
11369, 0.75, -0.36, 0.60, -11.69, 4.41, -8.89
11370, 0.72, -0.38, 0.58, -11.69, 3.15, -8.54
11371, 0.72, -0.39, 0.57, -10.15, 0.77, -9.10
11372, 0.73, -0.39, 0.57, -9.38, 1.61, -8.96
11373, 0.73, -0.39, 0.57, -8.54, 1.19, -8.33
11374, 0.73, -0.39, 0.57, -5.39, -0.07, -6.58
11375, 0.73, -0.39, 0.57, -4.55, -0.77, -6.16
11376, 0.73, -0.39, 0.58, -3.01, -1.12, -5.25
11377, 0.73, -0.40, 0.57, -2.17, -2.87, -3.64
11378, 0.74, -0.39, 0.57, -1.54, -5.18, -2.94
11379, 0.74, -0.39, 0.58, -1.26, -4.97, -2.66
11380, 0.74, -0.39, 0.58, 0.42, -3.85, -2.24
11381, 0.74, -0.39, 0.58, 1.89, -3.50, -1.26
11382, 0.75, -0.37, 0.58, 2.17, -1.61, -1.61
11383, 0.75, -0.37, 0.58, 1.96, -0.49, -0.84
11384, 0.74, -0.37, 0.57, 1.05, 0.91, -0.35
11385, 0.74, -0.37, 0.57, 0.49, 0.49, -0.63
11386, 0.74, -0.36, 0.57, 0.00, -0.07, -0.63
11387, 0.74, -0.36, 0.58, -0.77, -0.70, 0.21
11388, 0.75, -0.37, 0.59, -0.49, -0.49, 0.07
11389, 0.75, -0.37, 0.58, -0.56, 0.14, -0.28
11390, 0.75, -0.36, 0.58, -0.14, 1.26, -1.26
11391, 0.74, -0.37, 0.58, -1.40, 0.98, -1.33
11392, 0.74, -0.38, 0.58, 0.49, 0.56, 0.07
11393, 0.74, -0.37, 0.58, 0.84, 0.49, 0.35
11394, 0.74, -0.37, 0.58, 1.12, -0.14, 0.14
11395, 0.74, -0.37, 0.58, 0.98, -0.56, 1.05
11396, 0.74, -0.38, 0.59, 2.80, -1.33, 2.03
11397, 0.75, -0.37, 0.58, 2.66, -0.35, 2.03
11398, 0.74, -0.37, 0.58, 2.45, -0.35, 1.89
11399, 0.74, -0.37, 0.59, 1.47, -0.77, 1.40
11400, 0.74, -0.37, 0.59, 1.82, -0.70, 1.05
11401, 0.74, -0.38, 0.59, 2.66, -0.70, 1.40
11402, 0.74, -0.37, 0.59, 1.89, -0.35, 1.33
11403, 0.73, -0.37, 0.58, 1.12, 0.00, 1.33
11404, 0.74, -0.37, 0.58, 1.61, -0.42, 1.26
11405, 0.73, -0.37, 0.59, 1.96, -0.77, 0.77
11406, 0.73, -0.37, 0.59, 2.87, -0.42, 1.19
11407, 0.74, -0.38, 0.58, 2.80, -0.49, 1.12
11408, 0.73, -0.38, 0.58, 3.57, -3.08, 1.19
11409, 0.73, -0.37, 0.58, 1.61, -3.71, 1.89
11410, 0.74, -0.37, 0.59, 1.61, -3.85, 1.68
11411, 0.74, -0.37, 0.59, 0.07, -4.55, 0.14
11412, 0.74, -0.37, 0.58, -0.42, -3.29, -0.49
11413, 0.74, -0.37, 0.59, 0.14, -3.43, 0.14
11414, 0.74, -0.37, 0.58, -0.77, -4.20, 0.21
11415, 0.74, -0.37, 0.58, -1.89, -4.20, -0.42
11416, 0.74, -0.37, 0.58, -0.91, -4.06, -0.35
11417, 0.75, -0.37, 0.58, -1.19, -2.94, -0.28
11418, 0.75, -0.38, 0.58, -0.77, -1.89, -0.07
11419, 0.74, -0.37, 0.57, -0.98, -2.17, -0.14
11420, 0.75, -0.37, 0.58, -0.98, -1.05, 0.00
11421, 0.74, -0.38, 0.58, -1.33, -1.47, 0.21
11422, 0.74, -0.38, 0.58, -1.75, -1.54, -0.14
11423, 0.74, -0.37, 0.58, -1.68, -1.61, -0.21
11424, 0.74, -0.37, 0.58, -1.96, -2.10, 0.84
11425, 0.75, -0.37, 0.58, -2.10, -1.75, 0.70
11426, 0.75, -0.37, 0.58, -2.10, -1.54, -0.84
11427, 0.74, -0.38, 0.58, -2.10, -1.33, -0.56
11428, 0.74, -0.38, 0.58, -1.26, -1.68, 0.07
11429, 0.74, -0.50, 0.58, -2.45, -1.89, -0.42
11430, 0.74, -0.38, 0.58, -1.89, -2.31, -0.35
11431, 0.75, -0.38, 0.58, -1.89, -3.01, -0.07
11432, 0.74, -0.38, 0.57, -1.33, -2.59, 0.42
11433, 0.74, -0.38, 0.57, -1.61, -3.15, 0.63
11434, 0.74, -0.37, 0.57, -1.40, -4.27, 0.14
11435, 0.75, -0.38, 0.58, -0.91, -3.64, 0.91
11436, 0.75, -0.38, 0.57, -0.14, -2.59, 0.56
11437, 0.75, -0.38, 0.57, -1.33, -2.31, 0.00
11438, 0.74, -0.38, 0.57, 0.14, -2.73, 0.63
11439, 0.75, -0.38, 0.57, -0.70, -2.73, 0.49
11440, 0.75, -0.38, 0.57, 0.14, -2.38, 1.12
11441, 0.74, -0.38, 0.57, 2.73, -1.33, 1.12
11442, 0.74, -0.37, 0.58, 3.36, -0.07, 0.98
11443, 0.75, -0.37, 0.57, 3.15, 0.42, 0.91
11444, 0.75, -0.38, 0.57, 1.47, 0.07, 0.49
11445, 0.74, -0.38, 0.57, 1.82, 0.63, 0.42
11446, 0.75, -0.38, 0.57, 1.05, 0.77, -0.28
11447, 0.75, -0.38, 0.58, 1.89, 0.84, -0.07
11448, 0.75, -0.38, 0.57, 1.89, 0.49, 0.28
11449, 0.74, -0.37, 0.57, 1.61, -0.98, 0.70
11450, 0.75, -0.37, 0.57, 1.05, -1.05, 0.49
11451, 0.75, -0.40, 0.59, 1.89, -3.50, 0.14
11452, 0.77, -0.37, 0.59, 1.26, -0.56, 3.43
11453, 0.74, -0.33, 0.60, -1.26, -0.42, 1.47
11454, 0.73, -0.35, 0.59, -2.10, 1.54, -2.73
11455, 0.74, -0.38, 0.56, 0.77, 4.55, -3.36
11456, 0.74, -0.39, 0.56, 2.17, 3.78, -2.17
11457, 0.74, -0.38, 0.56, 1.68, 3.92, -1.40
11458, 0.74, -0.38, 0.57, 0.77, 3.08, -2.45
11459, 0.74, -0.39, 0.57, -0.56, 1.61, -1.40
11460, 0.75, -0.39, 0.58, -0.77, 1.33, -0.28
11461, 0.73, -0.39, 0.58, -1.05, 0.49, 0.56
11462, 0.73, -0.38, 0.58, 0.91, 0.28, 1.75
11463, 0.74, -0.37, 0.58, 2.87, -0.56, 1.89
11464, 0.74, -0.37, 0.59, 3.01, -1.47, 2.38
11465, 0.76, -0.36, 0.60, 1.40, 0.49, 1.40
11466, 0.73, -0.37, 0.58, 2.17, 1.89, 0.07
11467, 0.72, -0.39, 0.57, 3.64, 0.21, 0.91
11468, 0.73, -0.37, 0.58, 3.92, -1.75, 1.96
11469, 0.74, -0.37, 0.59, 2.45, -2.31, 2.31
11470, 0.74, -0.37, 0.59, 0.28, -1.96, 0.84
11471, 0.73, -0.39, 0.58, 2.80, -1.96, 0.49
11472, 0.73, -0.39, 0.58, 2.59, -3.71, 1.54
11473, 0.73, -0.37, 0.58, 0.35, -7.00, 1.61
11474, 0.74, -0.37, 0.59, -1.33, -7.49, 0.56
11475, 0.75, -0.37, 0.59, 0.00, -4.69, 0.42
11476, 0.76, -0.38, 0.59, -1.40, -3.01, -0.28
11477, 0.75, -0.37, 0.58, -1.61, -0.70, -1.33
11478, 0.75, -0.37, 0.57, -1.96, -0.21, -2.24
11479, 0.73, -0.38, 0.57, -0.84, -0.98, -0.49
11480, 0.73, -0.39, 0.58, 0.70, -3.99, 1.26
11481, 0.75, -0.38, 0.58, -0.84, -3.57, 1.12
11482, 0.74, -0.36, 0.58, -1.68, -3.57, 1.33
11483, 0.74, -0.37, 0.58, 0.21, -3.85, 1.82
11484, 0.74, -0.37, 0.59, -0.98, -3.78, 1.54
11485, 0.76, -0.37, 0.58, -4.62, -2.66, 0.00
11486, 0.73, -0.38, 0.58, -1.68, -0.56, 0.77
11487, 0.74, -0.39, 0.57, -0.28, -0.91, 0.00
11488, 0.74, -0.38, 0.57, -2.10, -3.78, 0.84
11489, 0.73, -0.37, 0.57, 0.07, -6.51, 1.47
11490, 0.74, -0.38, 0.58, 0.49, -7.35, 1.12
11491, 0.75, -0.39, 0.57, 0.63, -6.93, 1.05
11492, 0.74, -0.38, 0.57, 1.89, -6.65, 2.17
11493, 0.75, -0.38, 0.58, 2.59, -6.09, 2.45
11494, 0.76, -0.38, 0.58, 1.26, -4.06, 1.82
11495, 0.75, -0.38, 0.57, 2.59, -2.87, 1.26
11496, 0.75, -0.37, 0.58, 1.89, -1.47, 1.26
11497, 0.77, -0.36, 0.57, 0.56, 0.84, 0.63
11498, 0.74, -0.37, 0.56, 1.47, 0.28, -0.21
11499, 0.74, -0.38, 0.56, 1.89, 1.33, -0.91
11500, 0.75, -0.38, 0.55, 0.91, 1.26, -0.70
11501, 0.74, -0.38, 0.57, 2.38, -2.03, 1.05
11502, 0.75, -0.38, 0.58, 2.52, -2.10, 0.84
11503, 0.76, -0.37, 0.58, 1.68, -0.91, 0.07
11504, 0.75, -0.37, 0.57, 2.94, 0.84, 0.07
11505, 0.75, -0.39, 0.57, 2.45, 2.17, -0.35
11506, 0.74, -0.38, 0.57, 1.54, 2.17, -0.35
11507, 0.74, -0.38, 0.57, 1.26, 1.26, -0.14
11508, 0.75, -0.38, 0.57, 1.19, 0.42, 0.21
11509, 0.75, -0.38, 0.58, 0.63, 0.56, 0.28
11510, 0.74, -0.38, 0.57, 1.75, 0.35, 0.77
11511, 0.74, -0.38, 0.58, 1.89, 0.28, 0.56
11512, 0.74, -0.38, 0.58, 2.59, 0.63, 1.05
11513, 0.74, -0.37, 0.58, 4.76, -0.49, 1.05
11514, 0.75, -0.37, 0.58, 2.31, 0.70, 0.98
11515, 0.74, -0.37, 0.58, 1.19, 0.84, 1.26
11516, 0.74, -0.37, 0.58, 1.75, -0.28, 1.54
11517, 0.74, -0.37, 0.58, 1.47, -0.14, 1.19
11518, 0.74, -0.38, 0.58, 1.47, -0.70, 0.84
11519, 0.74, -0.38, 0.58, 1.19, -0.42, 0.98
11520, 0.73, -0.38, 0.58, 2.66, -1.05, 1.47
11521, 0.74, -0.38, 0.57, 3.64, -1.82, 1.96
11522, 0.73, -0.38, 0.57, 3.15, -3.64, 1.26
11523, 0.73, -0.38, 0.58, 3.36, -4.48, 1.89
11524, 0.75, -0.38, 0.58, 2.38, -4.34, 1.26
11525, 0.75, -0.37, 0.58, 0.91, -4.20, 0.28
11526, 0.74, -0.37, 0.58, -0.14, -4.55, -0.14
11527, 0.74, -0.38, 0.57, -0.28, -4.97, -0.14
11528, 0.74, -0.38, 0.58, 1.47, -4.90, 0.14
11529, 0.75, -0.37, 0.58, -0.14, -3.50, -0.35
11530, 0.75, -0.37, 0.58, -1.47, -3.08, -0.70
11531, 0.75, -0.38, 0.57, -1.26, -2.73, -0.35
11532, 0.75, -0.37, 0.57, -1.26, -2.45, 0.00
11533, 0.75, -0.37, 0.58, -1.47, -2.17, -0.14
11534, 0.75, -0.37, 0.57, -1.47, -1.96, -0.63
11535, 0.75, -0.38, 0.57, -0.91, -1.54, -0.35
11536, 0.75, -0.38, 0.57, -1.19, -1.26, -0.35
11537, 0.74, -0.37, 0.57, -1.33, -1.89, -0.63
11538, 0.75, -0.37, 0.57, -1.82, -1.47, -0.42
11539, 0.75, -0.38, 0.57, -1.61, -1.89, -0.49
11540, 0.75, -0.38, 0.57, -1.96, -1.96, -0.98
11541, 0.75, -0.37, 0.57, -2.52, -1.75, -0.77
11542, 0.75, -0.38, 0.57, -1.19, -1.89, 0.00
11543, 0.75, -0.38, 0.57, -0.91, -3.36, -0.07
11544, 0.75, -0.38, 0.57, -1.40, -2.73, 0.21
11545, 0.75, -0.38, 0.57, -1.89, -1.96, 0.49
11546, 0.75, -0.37, 0.57, -1.33, -2.03, 0.07
11547, 0.75, -0.38, 0.57, -1.68, -3.08, -0.14
11548, 0.75, -0.38, 0.57, -0.63, -2.94, 0.07
11549, 0.75, -0.37, 0.57, 0.14, -1.89, -0.14
11550, 0.75, -0.38, 0.57, -0.35, -1.33, -0.14
11551, 0.75, -0.38, 0.56, 0.91, -1.26, 0.14
11552, 0.75, -0.38, 0.56, 0.84, -1.96, 0.21
11553, 0.75, -0.37, 0.58, 1.82, -0.91, 0.42
11554, 0.76, -0.37, 0.57, 1.96, 0.35, 0.91
11555, 0.76, -0.38, 0.57, 0.91, 0.42, -0.28
11556, 0.75, -0.38, 0.56, 17.78, 1.40, -0.63
11557, 0.74, -0.38, 0.56, 1.68, 1.26, -0.28
11558, 0.75, -0.38, 0.57, 2.73, 0.07, 0.14
11559, 0.75, -0.37, 0.57, 0.84, 0.07, 0.35
11560, 0.75, -0.37, 0.57, 0.07, 0.07, 0.77
11561, 0.75, -0.38, 0.57, 1.68, -0.84, 0.84
11562, 0.75, -0.38, 0.57, 1.61, 0.21, 0.70
11563, 0.75, -0.37, 0.57, 2.10, 0.21, 0.70
11564, 0.75, -0.38, 0.57, 1.89, -0.07, 0.63
11565, 0.74, -0.38, 0.57, 1.19, -0.35, 0.56
11566, 0.75, -0.38, 0.57, 1.89, -0.28, 1.40
11567, 0.75, -0.37, 0.57, 1.26, -0.07, 1.05
11568, 0.74, -0.37, 0.58, 1.26, 0.07, 0.28
11569, 0.74, -0.38, 0.57, 1.75, -0.28, 0.91
11570, 0.75, -0.38, 0.58, 1.26, -0.28, 0.63
11571, 0.75, -0.38, 0.57, 0.91, 0.70, 0.35
11572, 0.74, -0.38, 0.57, 2.38, 0.28, 1.40
11573, 0.75, -0.37, 0.58, 3.08, -0.14, 1.33
11574, 0.75, -0.38, 0.57, 1.33, 0.21, 0.84
11575, 0.74, -0.38, 0.58, 0.84, 0.00, 1.26
11576, 0.74, -0.38, 0.57, 1.61, -0.21, 1.12
11577, 0.74, -0.37, 0.57, 1.54, -0.07, 0.98
11578, 0.74, -0.37, 0.58, 1.82, -0.42, 0.91
11579, 0.74, -0.38, 0.58, 1.82, -0.14, 0.63
11580, 0.74, -0.37, 0.57, 2.24, 0.00, 0.70
11581, 0.73, -0.38, 0.57, 3.78, -1.19, 1.19
11582, 0.73, -0.38, 0.57, 3.64, -2.59, 1.26
11583, 0.74, -0.38, 0.58, 3.29, -3.99, 1.33
11584, 0.74, -0.37, 0.59, 1.75, -4.41, 1.12
11585, 0.75, -0.37, 0.58, -0.28, -4.76, -0.35
11586, 0.74, -0.37, 0.58, -1.05, -4.76, -1.05
11587, 0.75, -0.37, 0.58, -0.70, -4.34, -0.98
11588, 0.75, -0.37, 0.58, -0.56, -3.85, -0.91
11589, 0.75, -0.38, 0.57, -0.63, -2.80, -0.35
11590, 0.75, -0.37, 0.57, -0.84, -1.96, -0.14
11591, 0.75, -0.37, 0.57, -1.19, -2.24, -0.21
11592, 0.75, -0.37, 0.57, -0.91, -2.87, -0.07
11593, 0.75, -0.37, 0.57, -0.98, -2.66, -0.07
11594, 0.75, -0.37, 0.58, 0.00, -2.66, 0.28
11595, 0.75, -0.37, 0.57, -1.12, -2.31, -0.21
11596, 0.75, -0.37, 0.57, -3.43, -3.22, -0.21
11597, 0.75, -0.38, 0.57, -2.24, -3.15, -0.07
11598, 0.75, -0.37, 0.57, -1.82, -2.45, -0.49
11599, 0.75, -0.37, 0.57, -1.61, -1.61, -0.14
11600, 0.75, -0.38, 0.57, -2.52, -1.68, -0.63
11601, 0.75, -0.38, 0.57, -2.80, -1.40, -0.91
11602, 0.75, -0.38, 0.57, -3.15, -1.26, -0.91
11603, 0.75, -0.38, 0.56, -1.12, -2.52, -0.28
11604, 0.75, -0.38, 0.56, -1.33, -2.03, 0.28
11605, 0.75, -0.38, 0.57, -1.75, -1.82, 0.14
11606, 0.75, -0.38, 0.56, -1.33, -2.38, 0.35
11607, 0.75, -0.38, 0.56, -0.14, -2.45, 0.70
11608, 0.75, -0.38, 0.56, -0.28, -3.08, 0.42
11609, 0.75, -0.38, 0.56, -0.56, -3.01, 0.28
11610, 0.75, -0.38, 0.56, -0.35, -2.66, 0.49
11611, 0.75, -0.38, 0.56, 0.07, -2.80, 0.56
11612, 0.76, -0.38, 0.57, 0.49, -1.96, 0.42
11613, 0.75, -0.38, 0.56, 1.89, -1.54, 0.63
11614, 0.75, -0.37, 0.58, 2.87, 0.42, 0.77
11615, 0.76, -0.37, 0.57, 2.73, 1.19, 0.98
11616, 0.75, -0.38, 0.56, 0.56, 0.42, -0.28
11617, 0.75, -0.38, 0.56, 0.98, 0.70, 0.00
11618, 0.75, -0.37, 0.56, 2.94, 0.14, 0.28
11619, 0.76, -0.38, 0.57, 1.19, -0.35, 0.28
11620, 0.75, -0.38, 0.57, 1.68, 0.07, 0.77
11621, 0.75, -0.37, 0.57, 1.05, -0.07, 0.63
11622, 0.75, -0.38, 0.56, 0.91, 0.35, 0.14
11623, 0.75, -0.38, 0.57, 0.98, -0.07, -0.14
11624, 0.75, -0.38, 0.57, 1.26, 0.28, 0.56
11625, 0.75, -0.38, 0.57, 1.47, -0.28, 0.35
11626, 0.75, -0.38, 0.57, 1.40, 0.21, 0.35
11627, 0.75, -0.38, 0.57, 1.61, 0.28, 0.56
11628, 0.75, -0.38, 0.57, 1.19, -0.14, 0.77
11629, 0.75, -0.38, 0.57, 1.61, -0.21, 0.28
11630, 0.75, -0.38, 0.57, 1.40, 0.00, 0.63
11631, 0.75, -0.38, 0.58, 1.33, 0.00, 0.77
11632, 0.75, -0.37, 0.57, 1.26, 0.77, 0.42
11633, 0.74, -0.37, 0.57, 2.73, -17.22, 1.05
11634, 0.75, -0.37, 0.57, 1.68, 0.21, 0.84
11635, 0.75, -0.38, 0.57, 1.47, 0.56, 0.77
11636, 0.75, -0.38, 0.58, 2.10, 0.14, 1.05
11637, 0.75, -0.37, 0.57, 1.40, -0.21, 1.12
11638, 0.74, -0.37, 0.57, 1.19, -0.35, 0.77
11639, 0.74, -0.37, 0.57, 1.54, -0.42, 0.77
11640, 0.74, -0.37, 0.57, 2.31, -0.35, 1.12
11641, 0.74, -0.38, 0.57, 3.15, -0.70, 1.05
11642, 0.74, -0.38, 0.57, 2.66, -1.12, 1.05
11643, 0.74, -0.38, 0.57, 2.45, -1.61, 0.77
11644, 0.74, -0.38, 0.57, 1.96, -3.92, 0.42
11645, 0.75, -0.37, 0.59, 1.26, -3.29, 0.28
11646, 0.75, -0.37, 0.58, 0.07, -3.22, -0.28
11647, 0.75, -0.37, 0.58, -0.84, -2.59, -0.70
11648, 0.75, -0.37, 0.58, 0.91, -2.52, -0.49
11649, 0.75, -0.37, 0.57, -0.35, -2.45, -0.14
11650, 0.75, -0.37, 0.58, -1.68, -2.38, -0.63
11651, 0.75, -0.37, 0.58, -1.05, -2.31, -0.70
11652, 0.74, -0.37, 0.57, -1.26, -2.38, -0.42
11653, 0.75, -0.38, 0.57, -0.56, -3.22, -0.14
11654, 0.75, -0.38, 0.57, -1.47, -3.01, -0.63
11655, 0.75, -0.37, 0.57, -1.19, -2.52, -0.49
11656, 0.75, -0.38, 0.57, -1.12, -2.45, 0.00
11657, 0.75, -0.37, 0.57, -1.54, -2.03, -0.21
11658, 0.75, -0.38, 0.57, -0.98, -1.47, -0.28
11659, 0.75, -0.37, 0.56, -0.63, -2.10, -0.28
11660, 0.75, -0.37, 0.57, -2.45, -2.31, -0.56
11661, 0.75, -0.38, 0.57, -1.47, -2.45, -0.35
11662, 0.75, -0.38, 0.57, -1.61, -2.52, -0.70
11663, 0.75, -0.37, 0.57, -1.47, -1.89, -0.63
11664, 0.75, -0.38, 0.56, -1.89, -2.10, 0.07
11665, 0.75, -0.38, 0.57, -3.01, -3.29, -0.63
11666, 0.75, -0.38, 0.57, -1.68, -2.24, -0.14
11667, 0.75, -0.38, 0.56, -1.12, -2.10, 0.28
11668, 0.76, -0.38, 0.56, -2.03, -2.73, 0.07
11669, 0.76, -0.38, 0.56, -1.19, -2.59, 0.07
11670, 0.76, -0.38, 0.57, -1.19, -2.17, 0.00
11671, 0.75, -0.38, 0.56, -1.89, -2.03, -0.35
11672, 0.75, -0.38, 0.56, -1.26, -1.89, -0.14
11673, 0.76, -0.38, 0.57, 17.78, -0.35, -0.63
11674, 0.76, -0.38, 0.56, -0.07, 0.84, -1.89
11675, 0.75, -0.39, 0.56, 0.63, -0.49, -2.87
11676, 0.76, -0.39, 0.56, 1.61, -0.21, -2.03
11677, 0.76, -0.39, 0.57, 4.41, 0.77, -1.40
11678, 0.76, -0.37, 0.58, 4.27, 1.68, -1.61
11679, 0.76, -0.36, 0.57, 2.87, 2.38, -1.26
11680, 0.75, -0.37, 0.56, 2.31, 3.64, -1.61
11681, 0.74, -0.37, 0.56, 3.50, 1.82, -0.42
11682, 0.75, -0.36, 0.57, 2.31, 1.82, -0.28
11683, 0.75, -0.36, 0.57, 1.75, 2.10, 0.14
11684, 0.75, -0.37, 0.57, -0.14, 1.68, -0.21
11685, 0.75, -0.37, 0.58, -0.42, 0.70, -0.77
11686, 0.75, -0.37, 0.57, 0.00, 0.70, -0.21
11687, 0.75, -0.37, 0.57, 0.70, 0.42, 0.21
11688, 0.75, -0.37, 0.58, 1.54, 0.28, 0.35
11689, 0.75, -0.37, 0.57, 1.47, 0.49, 0.49
11690, 0.75, -0.36, 0.57, 2.10, -0.35, 0.70
11691, 0.75, -0.37, 0.58, 1.89, -0.28, 0.70
11692, 0.75, -0.37, 0.58, 2.17, 0.00, 0.98
11693, 0.75, -0.37, 0.58, 3.36, -0.35, 0.77
11694, 0.75, -0.36, 0.57, 1.75, 0.35, 1.19
11695, 0.75, -0.37, 0.58, 1.47, 0.77, 1.19
11696, 0.75, -0.37, 0.58, 0.91, 0.77, 0.77
11697, 0.75, -0.37, 0.58, 1.12, 0.56, 1.26
11698, 0.74, -0.37, 0.58, 1.61, 0.28, 1.33
11699, 0.75, -0.37, 0.58, 1.12, 0.28, 0.56
11700, 0.75, -0.37, 0.58, 1.19, 0.21, 0.63
11701, 0.74, -0.37, 0.58, 1.75, -0.42, 1.05
11702, 0.75, -0.37, 0.59, 1.40, 0.07, 0.56
11703, 0.75, -0.37, 0.58, 0.98, 0.21, 0.91
11704, 0.74, -0.36, 0.58, 2.45, 0.28, 1.40
11705, 0.74, -0.36, 0.58, 2.87, -0.63, 1.33
11706, 0.74, -0.37, 0.59, 3.29, -0.91, 1.05
11707, 0.74, -0.38, 0.58, 2.73, -2.03, 0.49
11708, 0.73, -0.37, 0.58, 2.03, -3.29, 0.35
11709, 0.74, -0.36, 0.59, 0.98, -3.85, 0.28
11710, 0.75, -0.37, 0.59, -1.40, -3.43, -0.35
11711, 0.74, -0.37, 0.59, -1.54, -3.36, -0.91
11712, 0.74, -0.37, 0.59, -0.84, -2.66, -0.56
11713, 0.75, -0.37, 0.58, -0.91, -2.38, -0.42
11714, 0.74, -0.37, 0.58, -0.49, -3.01, 0.00
11715, 0.74, -0.37, 0.58, -1.05, -3.50, 0.35
11716, 0.74, -0.37, 0.58, -0.21, -6.65, 2.38
11717, 0.74, -0.36, 0.59, -1.19, -7.00, 2.73
11718, 0.75, -0.37, 0.58, -0.98, -5.39, 1.33
11719, 0.75, -0.37, 0.57, -0.63, -4.69, 0.56
11720, 0.75, -0.36, 0.57, -3.22, -4.69, -0.63
11721, 0.75, -0.37, 0.57, -2.52, -2.73, 0.21
11722, 0.75, -0.38, 0.57, -2.66, -3.36, 0.56
11723, 0.76, -0.37, 0.57, -3.78, -2.66, -0.91
11724, 0.76, -0.37, 0.57, -5.11, -1.19, -1.33
11725, 0.75, -0.37, 0.57, -3.15, 0.63, -0.70
11726, 0.75, -0.38, 0.56, -3.22, -0.56, -1.26
11727, 0.75, -0.38, 0.56, -2.52, -0.98, -0.21
11728, 0.75, -0.37, 0.57, -1.33, -1.47, 1.12
11729, 0.75, -0.37, 0.57, -1.96, -2.03, 0.77
11730, 0.75, -0.38, 0.57, -2.38, -2.24, -0.42
11731, 0.75, -0.38, 0.57, -0.98, -2.52, 0.42
11732, 0.75, -0.38, 0.57, -0.28, -2.24, 0.77
11733, 0.75, -0.38, 0.57, -0.21, -2.17, 0.84
11734, 0.75, -0.37, 0.56, 0.56, -2.24, 0.70
11735, 0.75, -0.37, 0.57, 1.12, -2.31, 0.70
11736, 0.75, -0.37, 0.58, 2.24, -1.05, 0.63
11737, 0.76, -0.37, 0.58, 2.73, 1.05, 0.84
11738, 0.75, -0.37, 0.56, 2.03, 0.63, -0.42
11739, 0.74, -0.38, 0.57, 0.98, 0.98, -0.14
11740, 0.75, -0.37, 0.56, 1.05, 1.26, -0.14
11741, 0.75, -0.38, 0.57, 1.33, 0.07, 0.07
11742, 0.75, -0.38, 0.57, 2.03, 0.14, 0.77
11743, 0.75, -0.37, 0.57, 1.19, -0.49, 0.42
11744, 0.75, -0.38, 0.57, 1.54, -0.42, 0.00
11745, 0.75, -0.38, 0.57, 1.47, -0.56, -0.14
11746, 0.75, -0.37, 0.57, 2.10, -0.70, 0.56
11747, 0.75, -0.37, 0.57, 2.03, -0.91, 0.84
11748, 0.75, -0.37, 0.57, 1.47, -0.49, 0.63
11749, 0.75, -0.38, 0.57, 2.24, -0.28, 0.98
11750, 0.75, -0.37, 0.57, 2.10, -0.14, 0.70
11751, 0.75, -0.37, 0.58, 1.82, 0.00, 0.35
11752, 0.76, -0.37, 0.58, 0.98, 0.35, 0.21
11753, 0.76, -0.37, 0.58, 1.47, 2.03, -1.54
11754, 0.75, -0.37, 0.57, 1.54, 4.41, -2.94
11755, 0.75, -0.38, 0.57, 1.47, 5.25, -3.29
11756, 0.75, -0.38, 0.57, 2.03, 4.13, -2.31
11757, 0.74, -0.38, 0.57, 1.89, 3.22, -1.54
11758, 0.74, -0.37, 0.58, 0.35, 2.24, 0.07
11759, 0.74, -0.36, 0.59, 0.91, 2.17, 1.12
11760, 0.74, -0.36, 0.59, 0.70, 1.82, 0.77
11761, 0.74, -0.36, 0.59, 1.33, 1.96, 0.49
11762, 0.74, -0.37, 0.59, 2.03, 1.68, 0.63
11763, 0.73, -0.36, 0.59, 2.10, 0.70, 0.63
11764, 0.74, -0.36, 0.59, 2.31, -0.21, 0.70
11765, 0.73, -0.38, 0.58, 2.94, -1.47, 0.98
11766, 0.72, -0.38, 0.59, 3.50, -3.99, 1.12
11767, 0.74, -0.37, 0.59, 2.66, -4.76, 1.26
11768, 0.74, -0.37, 0.59, 1.54, -5.11, 0.70
11769, 0.74, -0.37, 0.59, -0.07, -5.81, 0.14
11770, 0.74, -0.36, 0.59, -1.33, -5.39, -0.21
11771, 0.74, -0.37, 0.59, -0.91, -5.88, -0.35
11772, 0.75, -0.36, 0.58, -1.75, -5.53, -0.56
11773, 0.75, -0.36, 0.58, -2.80, -4.97, -0.63
11774, 0.75, -0.36, 0.58, -1.40, -4.90, 0.07
11775, 0.75, -0.37, 0.58, -1.75, -4.27, -0.70
11776, 0.75, -0.37, 0.57, -0.56, -3.71, -0.28
11777, 0.75, -0.37, 0.58, -0.49, -3.36, 0.28
11778, 0.75, -0.36, 0.57, 0.00, -2.38, 0.21
11779, 0.76, -0.37, 0.58, 0.35, -1.12, -0.28
11780, 0.76, -0.36, 0.59, 0.14, 1.40, 0.07
11781, 0.76, -0.36, 0.57, 2.38, 2.03, 0.70
11782, 0.75, -0.37, 0.58, -0.28, 2.45, -0.49
11783, 0.74, -0.37, 0.57, 2.10, 2.52, -0.91
11784, 0.74, -0.36, 0.58, 0.70, 2.66, -0.70
11785, 0.75, -0.36, 0.58, 0.56, 2.52, 0.00
11786, 0.75, -0.37, 0.58, 1.54, 1.33, 0.14
11787, 0.74, -0.37, 0.58, 1.61, 1.54, 0.21
11788, 0.74, -0.36, 0.58, 1.12, 0.77, 0.14
11789, 0.74, -0.36, 0.58, 1.05, 0.28, 0.91
11790, 0.74, -0.37, 0.59, 1.05, 0.00, 0.42
11791, 0.74, -0.37, 0.59, 1.33, 0.14, 0.77
11792, 0.74, -0.36, 0.59, 1.19, 0.21, 0.77
11793, 0.74, -0.37, 0.59, 1.19, -0.21, 0.63
11794, 0.74, -0.36, 0.59, 1.54, 0.00, 1.05
11795, 0.74, -0.36, 0.59, 1.40, -0.21, 1.12
11796, 0.74, -0.36, 0.59, 1.12, -0.56, 0.35
11797, 0.73, -0.36, 0.59, 1.33, -0.63, 0.56
11798, 0.74, -0.37, 0.58, 3.01, -1.40, 0.56
11799, 0.74, -0.38, 0.59, 2.66, -1.61, 0.63
11800, 0.73, -0.37, 0.58, 1.68, -3.15, 0.84
11801, 0.74, -0.36, 0.58, 1.47, -4.48, 0.84
11802, 0.75, -0.36, 0.59, 1.05, -5.25, 0.70
11803, 0.75, -0.37, 0.59, 0.14, -4.97, 0.56
11804, 0.74, -0.36, 0.59, -0.56, -4.90, 0.00
11805, 0.75, -0.36, 0.59, -1.12, -4.27, -0.49
11806, 0.75, -0.36, 0.58, -1.40, -3.92, -0.70
11807, 0.75, -0.36, 0.58, -1.47, -3.36, -0.70
11808, 0.75, -0.36, 0.58, -2.80, -2.03, -1.26
11809, 0.75, -0.37, 0.58, -2.94, -1.61, -1.40
11810, 0.75, -0.37, 0.57, -1.68, -1.54, -1.05
11811, 0.75, -0.36, 0.58, -2.03, -1.47, -0.77
11812, 0.75, -0.37, 0.58, -2.17, -1.82, -0.70
11813, 0.75, -0.37, 0.57, -1.96, -1.47, -1.33
11814, 0.75, -0.37, 0.58, -1.89, -1.26, -0.63
11815, 0.75, -0.37, 0.57, -1.96, -1.33, -0.21
11816, 0.75, -0.37, 0.58, -1.12, -2.03, 0.14
11817, 0.75, -0.36, 0.58, -1.75, -1.82, -0.07
11818, 0.75, -0.36, 0.58, -0.84, -1.19, -0.21
11819, 0.75, -0.37, 0.57, 0.14, -1.12, 0.14
11820, 0.75, -0.37, 0.58, 0.21, -1.75, 0.35
11821, 0.75, -0.36, 0.58, -0.14, -2.17, 0.14
11822, 0.75, -0.36, 0.58, 0.63, -1.54, 0.35
11823, 0.75, -0.37, 0.59, 1.05, -0.77, 0.21
11824, 0.76, -0.36, 0.57, 1.82, 0.91, 0.98
11825, 0.75, -0.36, 0.57, 1.33, 0.00, 0.63
11826, 0.74, -0.36, 0.58, 1.47, 0.91, 0.21
11827, 0.75, -0.36, 0.58, 1.33, 0.98, -0.07
11828, 0.75, -0.37, 0.58, 0.77, 0.21, -0.28
11829, 0.75, -0.37, 0.58, 1.19, 0.14, 0.49
11830, 0.75, -0.36, 0.58, 1.40, 0.00, 0.91
11831, 0.75, -0.37, 0.58, 1.68, -0.77, 0.21
11832, 0.74, -0.37, 0.58, 2.38, -0.07, 0.70
11833, 0.75, -0.36, 0.58, 1.68, -0.35, 1.05
11834, 0.75, -0.36, 0.58, 1.68, -0.49, 1.05
11835, 0.75, -0.37, 0.58, 1.05, -0.42, 0.35
11836, 0.74, -0.36, 0.58, 1.75, 0.56, 0.77
11837, 0.75, -0.36, 0.58, 2.10, -0.14, 1.05
11838, 0.75, -0.36, 0.58, 1.33, 0.14, 0.56
11839, 0.75, -0.37, 0.59, 1.40, 0.21, 0.63
11840, 0.74, -0.36, 0.58, 1.12, 0.56, 0.98
11841, 0.74, -0.36, 0.59, 1.33, 0.14, 0.28
11842, 0.74, -0.37, 0.59, 0.91, 0.00, 0.70
11843, 0.75, -0.37, 0.59, 1.75, -0.07, 0.28
11844, 0.74, -0.36, 0.58, 1.26, 0.63, 0.21
11845, 0.74, -0.36, 0.58, 2.24, 0.07, 1.12
11846, 0.74, -0.37, 0.59, 3.15, -1.26, 1.19
11847, 0.74, -0.37, 0.58, 2.31, -1.61, 0.84
11848, 0.74, -0.36, 0.58, 1.82, -2.45, 0.70
11849, 0.74, -0.36, 0.59, 1.54, -3.71, 0.70
11850, 0.74, -0.36, 0.59, 0.84, -4.34, 0.28
11851, 0.75, -0.36, 0.59, -0.77, -3.99, -0.56
11852, 0.75, -0.36, 0.59, -0.63, -3.29, -0.35
11853, 0.74, -0.36, 0.59, -1.05, -3.22, -0.63
11854, 0.74, -0.37, 0.59, -1.26, -3.22, -0.56
11855, 0.75, -0.36, 0.58, -1.61, -3.08, -0.77
11856, 0.75, -0.36, 0.58, -1.82, -3.22, -0.70
11857, 0.75, -0.36, 0.59, -1.40, -2.17, -0.63
11858, 0.75, -0.37, 0.58, -1.05, -1.89, -0.98
11859, 0.74, -0.36, 0.58, -1.26, -1.82, -0.63
11860, 0.75, -0.36, 0.58, -0.98, -1.33, 0.00
11861, 0.75, -0.37, 0.58, -1.89, -2.10, -0.63
11862, 0.75, -0.37, 0.58, -3.22, -1.89, -0.77
11863, 0.75, -0.36, 0.58, -1.54, -1.26, -0.28
11864, 0.75, -0.36, 0.58, -1.12, -1.33, -0.28
11865, 0.75, -0.37, 0.58, -1.26, -1.33, -0.42
11866, 0.75, -0.36, 0.58, -1.89, -1.40, -0.49
11867, 0.75, -0.36, 0.58, -2.24, -1.68, -0.49
11868, 0.75, -0.37, 0.58, -1.26, -2.17, -0.21
11869, 0.75, -0.37, 0.58, -1.89, -2.17, -0.07
11870, 0.75, -0.37, 0.58, -0.77, -1.26, 0.14
11871, 0.75, -0.36, 0.57, -0.98, -1.40, -0.07
11872, 0.75, -0.37, 0.58, -0.91, -1.68, -0.14
11873, 0.75, -0.37, 0.57, 0.63, -2.73, 0.21
11874, 0.75, -0.37, 0.57, -1.54, -2.24, -0.07
11875, 0.75, -0.36, 0.57, -1.33, -1.75, 0.35
11876, 0.75, -0.36, 0.57, -0.42, -2.87, 0.42
11877, 0.75, -0.37, 0.58, -0.63, -2.38, 0.35
11878, 0.75, -0.37, 0.57, 0.49, -2.03, 0.42
11879, 0.75, -0.37, 0.57, 1.89, -1.47, 0.70
11880, 0.75, -0.36, 0.59, 2.38, -0.21, 1.05
11881, 0.76, -0.36, 0.57, 2.87, 1.40, 1.19
11882, 0.75, -0.37, 0.57, 1.54, 0.21, 0.28
11883, 0.74, -0.36, 0.57, 1.82, 0.56, 0.14
11884, 0.75, -0.36, 0.57, 1.40, 0.77, -0.14
11885, 0.75, -0.37, 0.58, 1.54, 0.28, 0.21
11886, 0.75, -0.37, 0.58, 1.33, 0.07, 0.21
11887, 0.75, -0.36, 0.58, 1.96, -0.14, 0.35
11888, 0.75, -0.36, 0.58, 1.40, -0.14, -0.14
11889, 0.75, -0.37, 0.57, 1.40, 0.00, 0.07
11890, 0.75, -0.37, 0.58, 1.12, 0.35, 0.35
11891, 0.75, -0.36, 0.58, 1.82, 0.07, 0.70
11892, 0.75, -0.37, 0.58, 1.54, 0.28, 0.56
11893, 0.75, -0.37, 0.58, 1.05, 0.07, 0.28
11894, 0.75, -0.37, 0.58, 1.33, 0.00, 0.77
11895, 0.74, -0.36, 0.58, 1.40, -0.21, 0.77
11896, 0.75, -0.37, 0.58, 1.47, -0.63, 0.49
11897, 0.75, -0.36, 0.59, 0.98, -0.49, 0.35
11898, 0.75, -0.36, 0.58, 1.19, 0.07, 0.70
11899, 0.75, -0.36, 0.58, 1.47, 0.00, 0.63
11900, 0.74, -0.36, 0.58, 0.63, 0.07, 0.28
11901, 0.74, -0.36, 0.59, 1.26, 0.14, 0.77
11902, 0.74, -0.36, 0.58, 1.82, -0.21, 0.77
11903, 0.75, -0.36, 0.59, 2.03, -0.28, 0.28
11904, 0.74, -0.37, 0.59, 0.70, -0.42, 0.56
11905, 0.74, -0.37, 0.59, 0.63, 0.42, 0.70
11906, 0.74, -0.36, 0.58, 1.75, 0.07, 0.56
11907, 0.74, -0.36, 0.58, 2.03, -0.63, 0.98
11908, 0.74, -0.37, 0.59, 2.31, -0.98, 0.98
11909, 0.74, -0.37, 0.59, 2.31, -1.33, 0.84
11910, 0.74, -0.36, 0.58, 1.47, -1.40, 0.35
11911, 0.74, -0.36, 0.58, 0.98, -2.80, 0.63
11912, 0.74, -0.36, 0.59, -0.28, -3.36, -0.07
11913, 0.75, -0.37, 0.59, -0.07, -2.59, -0.21
11914, 0.75, -0.36, 0.59, 0.07, -1.68, -0.14
11915, 0.74, -0.35, 0.59, -0.21, -1.68, 0.00
11916, 0.74, -0.36, 0.59, -0.77, -1.40, -0.21
11917, 0.75, -0.36, 0.58, -0.56, -1.47, -0.28
11918, 0.74, -0.36, 0.59, 1.05, -2.45, -0.77
11919, 0.74, -0.36, 0.59, -0.98, -1.75, -0.70
11920, 0.75, -0.37, 0.58, -1.47, -1.12, -0.49
11921, 0.74, -0.36, 0.58, -0.21, -1.40, -0.21
11922, 0.74, -0.36, 0.58, 0.28, -1.47, 0.21
11923, 0.74, -0.37, 0.58, -0.28, -1.96, 0.00
11924, 0.74, -0.37, 0.58, -0.21, -2.10, 0.14
11925, 0.75, -0.36, 0.58, -0.98, -1.82, 0.00
11926, 0.74, -0.36, 0.58, -0.42, -2.24, 0.28
11927, 0.75, -0.36, 0.58, -0.21, -1.96, -0.07
11928, 0.75, -0.36, 0.59, -0.63, -2.10, -0.21
11929, 0.75, -0.37, 0.58, 0.14, -2.03, 0.28
11930, 0.75, -0.36, 0.58, -0.42, -2.17, -0.07
11931, 0.75, -0.37, 0.58, -0.98, -2.45, -0.49
11932, 0.75, -0.37, 0.58, -1.12, -1.75, 0.00
11933, 0.74, -0.36, 0.58, 0.00, -2.24, 0.07
11934, 0.75, -0.36, 0.58, -1.54, -3.15, -0.49
11935, 0.75, -0.37, 0.58, -2.80, -2.94, -0.56
11936, 0.75, -0.37, 0.58, -0.77, -2.52, 0.07
11937, 0.75, -0.36, 0.58, -0.84, -2.31, -0.07
11938, 0.75, -0.36, 0.58, -0.98, -1.96, 0.14
11939, 0.75, -0.36, 0.58, -1.54, -1.68, -0.21
11940, 0.74, -0.37, 0.57, -1.33, -1.89, -0.28
11941, 0.75, -0.37, 0.58, -1.40, -1.47, -0.21
11942, 0.75, -0.36, 0.57, -1.26, -1.68, -0.28
11943, 0.75, -0.37, 0.57, -0.91, -1.82, 0.00
11944, 0.75, -0.36, 0.57, -0.14, -1.33, 0.00
11945, 0.75, -0.37, 0.57, 1.89, -0.98, 0.56
11946, 0.75, -0.37, 0.59, 1.89, -0.21, 0.56
11947, 0.76, -0.36, 0.57, 1.54, 0.70, 0.70
11948, 0.75, -0.37, 0.57, 1.68, 0.49, 0.07
11949, 0.74, -0.36, 0.57, 0.84, 0.14, 0.21
11950, 0.75, -0.36, 0.58, 0.84, 1.33, 0.35
11951, 0.75, -0.37, 0.58, 0.98, 0.07, 0.35
11952, 0.75, -0.37, 0.58, 0.00, 0.21, -0.07
11953, 0.74, -0.36, 0.58, 0.91, 0.14, 0.28
11954, 0.75, -0.37, 0.57, 1.12, -0.70, 0.56
11955, 0.74, -0.38, 0.58, 3.36, -4.13, 3.22
11956, 0.74, -0.36, 0.60, 5.04, -5.46, 4.55
11957, 0.75, -0.35, 0.60, 4.27, -2.45, 3.08
11958, 0.76, -0.36, 0.58, 2.31, -0.07, 0.98
11959, 0.75, -0.37, 0.57, 2.24, -0.28, 0.28
11960, 0.74, -0.37, 0.57, 1.05, -1.05, 0.49
11961, 0.75, -0.37, 0.58, 0.28, -2.80, 0.28
11962, 0.76, -0.36, 0.59, -0.63, -0.49, 0.21
11963, 0.76, -0.36, 0.58, -1.05, 1.19, -0.98
11964, 0.75, -0.37, 0.57, -2.17, 3.29, -0.77
11965, 0.74, -0.37, 0.57, -2.24, 1.68, -0.21
11966, 0.75, -0.37, 0.58, -1.47, 0.91, 0.63
11967, 0.76, -0.36, 0.59, -1.82, 1.96, 1.19
11968, 0.75, -0.36, 0.58, -2.03, 3.64, -0.84
11969, 0.74, -0.36, 0.58, -0.70, 4.13, -1.33
11970, 0.74, -0.37, 0.58, 0.28, 3.57, -0.91
11971, 0.73, -0.37, 0.58, 0.98, 2.03, -0.14
11972, 0.74, -0.38, 0.59, 0.84, 0.63, -0.07
11973, 0.73, -0.37, 0.58, -0.14, 0.28, -0.07
11974, 0.73, -0.37, 0.59, -0.98, -2.17, 0.35
11975, 0.74, -0.37, 0.59, -1.61, -3.22, -0.49
11976, 0.74, -0.37, 0.59, -1.05, -3.08, -0.77
11977, 0.74, -0.37, 0.59, -0.63, -3.15, 0.14
11978, 0.74, -0.37, 0.59, 0.28, -3.29, 0.35
11979, 0.74, -0.37, 0.59, -0.84, -3.29, 0.35
11980, 0.74, -0.36, 0.58, -1.33, -3.43, 0.35
11981, 0.74, -0.36, 0.59, -0.70, -3.36, 0.35
11982, 0.75, -0.37, 0.59, -0.56, -2.80, 0.42
11983, 0.75, -0.37, 0.58, -1.05, -2.38, 0.00
11984, 0.74, -0.36, 0.58, -1.33, -2.38, -0.35
11985, 0.74, -0.37, 0.58, -1.12, -2.73, 0.00
11986, 0.74, -0.37, 0.58, -1.40, -2.87, -0.07
11987, 0.75, -0.37, 0.58, -1.68, -2.24, -0.21
11988, 0.74, -0.37, 0.58, -1.68, -2.10, -0.49
11989, 0.75, -0.37, 0.58, -1.47, -1.89, 0.07
11990, 0.75, -0.37, 0.58, -2.24, -2.59, -0.07
11991, 0.74, -0.37, 0.57, -2.45, -3.29, 0.28
11992, 0.75, -0.37, 0.57, -1.26, -3.57, 0.77
11993, 0.75, -0.38, 0.58, -0.70, -2.80, 0.00
11994, 0.75, -0.37, 0.57, -1.26, -1.89, 0.14
11995, 0.74, -0.37, 0.57, -0.49, -1.33, 0.70
11996, 0.75, -0.37, 0.57, -0.56, -2.80, 0.21
11997, 0.75, -0.38, 0.57, -1.33, -2.66, 0.21
11998, 0.75, -0.50, 0.57, -0.35, -2.17, 0.21
11999, 0.75, -0.37, 0.57, 0.28, -2.03, 0.42
12000, 0.75, -0.37, 0.57, 0.98, -2.17, 0.63
12001, 0.75, -0.38, 0.57, 2.10, -1.40, 0.63
12002, 0.87, -0.37, 0.58, 2.38, -0.28, 0.77
12003, 0.75, -0.37, 0.57, 1.82, 0.63, 0.98
12004, 0.75, -0.37, 0.57, 0.70, -0.07, 0.42
12005, 0.75, -0.37, 0.57, 1.12, 0.14, 0.14
12006, 0.75, -0.37, 0.57, 1.19, 0.07, -0.07
12007, 0.75, -0.37, 0.58, 1.12, 0.49, 0.14
12008, 0.75, -0.37, 0.57, 2.59, -0.49, 0.42
12009, 0.75, -0.37, 0.57, 0.98, -0.63, 0.21
12010, 0.75, -0.37, 0.57, 0.21, 0.00, 0.21
12011, 0.75, -0.37, 0.57, 1.75, -0.49, 0.63
12012, 0.75, -0.37, 0.58, 1.19, -0.21, 0.84
12013, 0.75, -0.38, 0.58, 0.56, -0.21, 0.42
12014, 0.74, -0.37, 0.58, 1.12, 0.00, 0.42
12015, 0.74, -0.37, 0.58, 1.19, 0.00, 0.84
12016, 0.74, -0.37, 0.58, 1.68, -0.21, 0.98
12017, 0.75, -0.37, 0.58, 1.68, -0.14, 0.56
12018, 0.74, -0.37, 0.58, 1.89, -0.28, 0.70
12019, 0.74, -0.37, 0.58, 1.47, -0.63, 0.91
12020, 0.75, -0.37, 0.58, 0.91, -0.28, 0.56
12021, 0.74, -0.37, 0.58, 1.19, -0.49, 0.49
12022, 0.74, -0.37, 0.58, 1.75, -0.77, 0.84
12023, 0.75, -0.37, 0.58, 3.22, -0.56, 0.84
12024, 0.74, -0.37, 0.58, 1.19, -0.28, 0.42
12025, 0.74, -0.37, 0.58, 1.26, -0.70, 0.98
12026, 0.74, -0.37, 0.58, 2.03, -0.42, 0.91
12027, 0.74, -0.37, 0.58, 1.61, 0.07, 0.84
12028, 0.74, -0.37, 0.58, 2.80, -0.91, 1.05
12029, 0.74, -0.38, 0.58, 2.24, -0.63, 0.56
12030, 0.73, -0.38, 0.58, 2.52, -1.96, 0.84
12031, 0.74, -0.37, 0.59, 1.96, -3.01, 0.70
12032, 0.74, -0.37, 0.58, 0.42, -3.50, 0.21
12033, 0.74, -0.37, 0.58, -1.19, -3.50, -0.21
12034, 0.74, -0.50, 0.58, -0.56, -2.87, 0.00
12035, 0.74, -0.37, 0.58, 0.28, -3.08, 0.21
12036, 0.75, -0.37, 0.58, -0.28, -3.15, -0.21
12037, 0.75, -0.37, 0.58, -0.91, -3.22, -0.42
12038, 0.75, -0.37, 0.58, -0.14, -2.52, -0.56
12039, 0.74, -0.37, 0.58, -0.35, -2.66, -0.07
12040, 0.75, -0.37, 0.58, 0.42, -1.40, 0.35
12041, 0.75, -0.37, 0.57, -0.49, -2.45, -0.14
12042, 0.75, -0.36, 0.58, -0.63, -2.59, -0.21
12043, 0.75, -0.37, 0.58, -0.70, -1.82, 0.00
12044, 0.75, -0.37, 0.57, -1.40, -1.68, -0.49
12045, 0.74, -0.37, 0.57, -1.61, -1.61, -0.28
12046, 0.74, -0.37, 0.57, -1.61, -2.24, -0.14
12047, 0.75, -0.38, 0.57, -2.38, -2.31, -0.35
12048, 0.75, -0.37, 0.58, -1.68, -1.82, -0.28
12049, 0.74, -0.38, 0.57, -1.47, -2.17, 0.00
12050, 0.75, -0.37, 0.57, -1.68, -2.45, 0.28
12051, 0.75, -0.37, 0.57, -1.96, -2.73, 0.00
12052, 0.75, -0.37, 0.57, -1.33, -2.24, 0.14
12053, 0.75, -0.37, 0.57, 0.21, -2.59, -0.07
12054, 0.75, -0.37, 0.57, -1.26, -2.45, -0.07
12055, 0.75, -0.37, 0.57, -1.61, -1.75, 0.14
12056, 0.75, -0.37, 0.57, -0.98, -1.75, 0.00
12057, 0.75, -0.37, 0.57, -0.35, -1.68, -0.14
12058, 0.75, -0.37, 0.57, -0.56, -1.82, 0.00
12059, 0.75, -0.38, 0.57, -0.63, -1.96, -0.14
12060, 0.75, -0.38, 0.57, -0.21, -1.68, 0.42
12061, 0.75, -0.37, 0.57, 1.19, -1.75, 0.84
12062, 0.75, -0.38, 0.57, 1.89, -1.33, 0.70
12063, 0.75, -0.38, 0.58, 2.38, -0.91, 0.63
12064, 0.76, -0.36, 0.57, 1.68, 0.91, 0.77
12065, 0.75, -0.37, 0.57, 1.19, 0.49, 0.63
12066, 0.75, -0.38, 0.57, 1.19, 0.42, 0.00
12067, 0.75, -0.37, 0.57, 0.84, 0.63, -0.35
12068, 0.75, -0.37, 0.57, 2.10, -0.14, -0.07
12069, 0.75, -0.38, 0.57, 0.98, 0.00, 0.28
12070, 0.75, -0.37, 0.57, 0.14, 0.56, 0.14
12071, 0.74, -0.37, 0.57, 1.19, 0.49, 0.00
12072, 0.75, -0.37, 0.57, 0.98, 0.14, 0.00
12073, 0.75, -0.37, 0.58, 0.77, 0.42, 0.14
12074, 0.75, -0.37, 0.58, 0.91, 0.84, 0.56
12075, 0.74, -0.37, 0.57, 0.77, 0.28, 0.28
12076, 0.74, -0.37, 0.58, 1.47, -0.49, 0.63
12077, 0.75, -0.37, 0.58, 1.33, -0.28, 0.70
12078, 0.75, -0.37, 0.58, 1.47, 0.21, 0.63
12079, 0.75, -0.37, 0.58, 1.61, 0.14, 0.56
12080, 0.75, -0.37, 0.58, 0.98, 0.00, 0.77
12081, 0.75, -0.37, 0.58, 1.33, -0.21, 0.84
12082, 0.74, -0.37, 0.58, 0.70, -0.28, 0.35
12083, 0.74, -0.37, 0.58, 2.24, -0.21, 0.56
12084, 0.75, -0.37, 0.58, 1.54, -0.14, 0.70
12085, 0.74, -0.37, 0.58, 1.26, 0.35, 0.84
12086, 0.74, -0.37, 0.58, 1.61, -0.21, 0.91
12087, 0.74, -0.37, 0.58, 1.40, -0.35, 0.77
12088, 0.74, -0.37, 0.58, 1.68, -0.49, 0.35
12089, 0.74, -0.37, 0.58, 1.82, -0.42, 0.63
12090, 0.74, -0.37, 0.58, 2.45, -0.35, 0.49
12091, 0.74, -0.38, 0.58, 3.01, -1.26, 0.91
12092, 0.74, -0.38, 0.58, 2.45, -1.68, 1.12
12093, 0.74, -0.37, 0.58, 1.33, -2.80, 0.77
12094, 0.74, -0.37, 0.58, 1.40, -3.57, 0.35
12095, 0.74, -0.37, 0.58, -0.21, -3.50, 0.14
12096, 0.75, -0.37, 0.58, -0.49, -3.08, -0.14
12097, 0.75, -0.37, 0.58, -0.77, -2.66, -0.49
12098, 0.75, -0.37, 0.58, 17.36, -2.66, -1.12
12099, 0.75, -0.36, 0.58, -0.49, -0.91, -1.33
12100, 0.75, -0.37, 0.58, -2.45, 0.77, -2.87
12101, 0.75, -0.38, 0.57, -1.19, 0.91, -3.15
12102, 0.74, -0.37, 0.57, -0.14, 0.07, -0.84
12103, 0.75, -0.36, 0.59, 0.63, -1.96, -1.26
12104, 0.75, -0.37, 0.59, -0.84, -0.28, -2.59
12105, 0.74, -0.37, 0.58, -0.91, 0.35, -1.82
12106, 0.74, -0.37, 0.58, -0.77, 0.42, -1.47
12107, 0.75, -0.36, 0.58, -0.21, 0.98, -1.12
12108, 0.74, -0.36, 0.59, -0.63, 0.07, -0.42
12109, 0.74, -0.36, 0.58, -2.17, -1.12, -0.77
12110, 0.74, -0.37, 0.58, -2.17, -0.56, -0.77
12111, 0.74, -0.37, 0.58, -0.21, -1.12, 0.49
12112, 0.74, -0.36, 0.58, -1.26, -2.87, 0.00
12113, 0.74, -0.37, 0.58, -1.47, -4.34, -0.28
12114, 0.75, -0.37, 0.58, -0.28, -3.78, 1.05
12115, 0.75, -0.37, 0.58, -0.98, -3.43, 1.12
12116, 0.75, -0.37, 0.58, -1.68, -3.50, 0.35
12117, 0.75, -0.37, 0.57, -0.84, -2.59, 0.56
12118, 0.75, -0.37, 0.57, -0.77, -2.94, 0.28
12119, 0.63, -0.37, 0.57, -0.77, -2.45, 0.70
12120, 0.75, -0.37, 0.57, -0.49, -2.66, 0.63
12121, 0.75, -0.37, 0.57, -0.98, -2.03, -0.07
12122, 0.75, -0.37, 0.57, 1.26, -1.68, 0.77
12123, 0.75, -0.37, 0.57, 1.61, -1.26, 0.56
12124, 0.75, -0.36, 0.59, 1.05, 0.35, 0.21
12125, 0.75, -0.37, 0.57, 2.66, 1.05, 1.19
12126, 0.75, -0.37, 0.58, 0.63, 1.12, 0.49
12127, 0.74, -0.37, 0.58, 1.26, 1.05, -0.14
12128, 0.74, -0.37, 0.58, 1.12, 0.42, -0.77
12129, 0.75, -0.37, 0.58, 0.56, -0.07, 0.28
12130, 0.75, -0.37, 0.58, 1.12, 17.22, 0.91
12131, 0.74, -0.37, 0.58, 1.82, 0.00, 0.56
12132, 0.75, -0.37, 0.58, 0.21, 0.42, 0.56
12133, 0.74, -0.37, 0.58, 1.54, -0.63, 0.63
12134, 0.75, -0.37, 0.58, 0.84, -0.14, 0.70
12135, 0.75, -0.37, 0.58, 0.98, 0.14, 0.63
12136, 0.74, -0.37, 0.58, 1.26, 0.21, 0.42
12137, 0.74, -0.36, 0.58, 1.54, -0.07, 0.77
12138, 0.74, -0.37, 0.58, 1.47, -0.35, 0.70
12139, 0.75, -0.37, 0.58, 0.98, -0.28, 0.56
12140, 0.75, -0.37, 0.59, 0.63, 0.00, 0.42
12141, 0.74, -0.37, 0.58, 0.84, 0.21, 0.84
12142, 0.74, -0.37, 0.58, 1.05, 0.21, 0.63
12143, 0.74, -0.37, 0.58, 0.84, -0.77, 0.35
12144, 0.74, -0.37, 0.58, 1.26, -0.28, 0.77
12145, 0.74, -0.37, 0.59, 1.33, -0.07, 1.12
12146, 0.74, -0.37, 0.59, 1.40, -0.42, 0.49
12147, 0.74, -0.37, 0.59, 1.12, -0.14, 1.05
12148, 0.74, -0.36, 0.58, 1.61, -0.21, 0.98
12149, 0.74, -0.36, 0.58, 2.03, -1.19, 0.70
12150, 0.74, -0.37, 0.59, 2.45, -1.47, 0.91
12151, 0.74, -0.37, 0.59, 3.22, -1.12, 1.19
12152, 0.73, -0.37, 0.59, 2.87, -2.03, 0.98
12153, 0.73, -0.37, 0.58, 2.52, -2.59, 0.98
12154, 0.74, -0.36, 0.59, 1.82, -3.29, 0.56
12155, 0.74, -0.36, 0.59, 0.98, -3.71, -0.21
12156, 0.74, -0.37, 0.59, -0.56, -3.78, -0.49
12157, 0.74, -0.37, 0.59, -1.12, -3.64, -0.63
12158, 0.74, -0.36, 0.58, -0.70, -3.85, -0.42
12159, 0.75, -0.36, 0.58, -1.19, -3.15, -0.49
12160, 0.75, -0.37, 0.59, -1.61, -2.38, -0.49
12161, 0.75, -0.37, 0.58, -1.19, -1.96, -0.56
12162, 0.74, -0.37, 0.58, -0.63, -1.54, -0.07
12163, 0.75, -0.36, 0.58, -0.98, -1.75, -0.28
12164, 0.75, -0.36, 0.58, -1.05, -1.68, -0.70
12165, 0.75, -0.37, 0.59, -1.19, -1.47, -0.42
12166, 0.75, -0.37, 0.58, -1.61, -1.33, -0.70
12167, 0.74, -0.37, 0.58, -1.68, -1.05, -0.35
12168, 0.75, -0.36, 0.58, -1.33, -1.47, -0.28
12169, 0.75, -0.38, 0.58, -1.68, -1.75, -0.63
12170, 0.74, -0.37, 0.58, -2.24, -1.61, -0.56
12171, 0.74, -0.37, 0.58, -1.26, -1.33, -0.07
12172, 0.75, -0.37, 0.58, -2.10, -1.75, -0.14
12173, 0.75, -0.37, 0.58, -1.40, -1.82, -0.56
12174, 0.75, -0.37, 0.58, -1.33, -1.47, -0.14
12175, 0.74, -0.37, 0.58, 0.35, -1.96, 0.14
12176, 0.74, -0.37, 0.58, -0.84, -1.47, 0.07
12177, 0.75, -0.37, 0.57, -0.91, -1.54, 0.00
12178, 0.74, -0.37, 0.58, -1.05, -1.96, -0.07
12179, 0.75, -0.37, 0.58, -0.98, -2.52, -0.14
12180, 0.75, -0.37, 0.58, -1.47, -2.80, 0.07
12181, 0.75, -0.37, 0.58, -0.84, -2.73, 0.00
12182, 0.75, -0.37, 0.58, -1.12, -1.96, -0.07
12183, 0.75, -0.37, 0.57, -0.84, -2.31, 0.28
12184, 0.75, -0.38, 0.57, -0.63, -2.45, 0.49
12185, 0.76, -0.37, 0.57, -0.84, -2.03, 0.07
12186, 0.75, -0.37, 0.57, -1.12, -1.75, 0.00
12187, 0.75, -0.37, 0.57, 0.28, -1.89, 0.49
12188, 0.75, -0.37, 0.57, 1.19, -2.03, 0.35
12189, 0.75, -0.37, 0.57, 2.45, -1.05, 0.28
12190, 0.75, -0.36, 0.58, 2.24, 1.33, 0.91
12191, 0.75, -0.37, 0.57, 2.66, 0.91, 0.56
12192, 0.75, -0.37, 0.57, 1.61, 0.70, 0.21
12193, 0.74, -0.37, 0.57, 1.82, 0.84, 0.07
12194, 0.75, -0.37, 0.57, 1.61, 0.00, 0.14
12195, 0.75, -0.37, 0.58, 1.89, 0.07, 0.42
12196, 0.75, -0.37, 0.58, 1.12, 0.28, 0.28
12197, 0.74, -0.37, 0.58, 1.05, 0.42, 0.00
12198, 0.74, -0.36, 0.58, 1.75, 0.28, 0.49
12199, 0.75, -0.37, 0.58, 2.24, -0.35, 0.56
12200, 0.75, -0.37, 0.58, 1.54, -0.21, 0.21
12201, 0.75, -0.37, 0.58, 1.19, 0.28, 0.07
12202, 0.74, -0.37, 0.58, 0.98, 0.70, 0.49
12203, 0.74, -0.37, 0.58, 2.59, 0.00, 0.63
12204, 0.74, -0.37, 0.58, 0.91, -0.21, 0.14
12205, 0.74, -0.37, 0.58, 0.84, 0.42, 0.56
12206, 0.74, -0.37, 0.58, 1.54, -0.42, 0.84
12207, 0.74, -0.37, 0.59, 1.26, -0.28, 0.56
12208, 0.74, -0.37, 0.58, 1.82, 0.07, 0.77
12209, 0.74, -0.37, 0.58, 1.47, -0.35, 0.98
12210, 0.74, -0.36, 0.59, 1.75, -0.98, 0.84
12211, 0.74, -0.37, 0.59, 1.12, -17.85, 0.63
12212, 0.74, -0.37, 0.58, 1.47, 0.14, 0.84
12213, 0.74, -0.36, 0.59, 1.75, 0.07, 0.63
12214, 0.74, -0.36, 0.59, 1.61, 0.07, 0.63
12215, 0.74, -0.37, 0.58, 1.61, -0.63, 0.63
12216, 0.74, -0.37, 0.59, 1.61, -0.84, 1.05
12217, 0.74, -0.37, 0.59, 1.61, -0.14, 0.91
12218, 0.73, -0.36, 0.58, 2.24, -0.14, 0.56
12219, 0.74, -0.37, 0.58, 3.22, -0.70, 1.40
12220, 0.74, -0.37, 0.59, 2.73, -1.68, 0.77
12221, 0.74, -0.37, 0.58, 2.45, -2.17, 0.56
12222, 0.74, -0.37, 0.59, 2.17, -3.08, 0.84
12223, 0.74, -0.36, 0.59, 0.77, -3.92, 0.42
12224, 0.74, -0.37, 0.59, -0.28, -2.94, -0.28
12225, 0.74, -0.36, 0.58, 0.00, -2.87, -0.21
12226, 0.74, -0.36, 0.59, -0.21, -2.31, -0.14
12227, 0.74, -0.37, 0.59, -0.77, -2.38, -0.42
12228, 0.74, -0.37, 0.58, -0.98, -2.52, -0.63
12229, 0.74, -0.36, 0.58, -0.35, -2.52, 0.00
12230, 0.74, -0.37, 0.59, -0.14, -2.80, 0.07
12231, 0.74, -0.37, 0.58, -0.63, -2.59, -0.14
12232, 0.74, -0.36, 0.59, -0.42, -2.17, -0.14
12233, 0.74, -0.36, 0.58, 17.08, -2.52, -0.21
12234, 0.75, -0.37, 0.59, -0.49, -1.75, -0.14
12235, 0.74, -0.37, 0.58, -2.03, -1.75, -0.42
12236, 0.75, -0.36, 0.58, -1.05, -2.24, -0.21
12237, 0.75, -0.36, 0.58, -0.84, -1.89, -0.21
12238, 0.75, -0.37, 0.58, -1.26, -2.03, -0.49
12239, 0.75, -0.37, 0.58, -0.91, -1.47, -0.42
12240, 0.75, -0.37, 0.58, -1.33, -1.26, -0.28
12241, 0.75, -0.36, 0.58, -1.68, -1.68, -0.77
12242, 0.74, -0.37, 0.58, -1.96, -1.54, -0.28
12243, 0.75, -0.37, 0.58, -1.26, -1.47, -0.14
12244, 0.74, -0.37, 0.58, -1.75, -1.61, -0.49
12245, 0.75, -0.37, 0.58, -0.98, -2.03, -0.14
12246, 0.75, -0.37, 0.58, -1.61, -2.73, 0.00
12247, 0.74, -0.36, 0.58, -1.89, -2.31, 0.00
12248, 0.75, -0.37, 0.58, -0.63, -2.45, -0.14
12249, 0.75, -0.37, 0.58, -1.33, -1.61, 0.07
12250, 0.75, -0.37, 0.58, -1.68, -1.40, 0.14
12251, 0.75, -0.37, 0.58, -1.75, -2.24, -0.35
12252, 0.75, -0.37, 0.57, -1.12, -1.96, -0.21
12253, 0.74, -0.37, 0.58, -0.35, -2.03, 0.35
12254, 0.75, -0.37, 0.57, -0.35, -2.03, 0.14
12255, 0.75, -0.37, 0.57, -0.49, -1.82, -0.14
12256, 0.75, -0.37, 0.57, -0.21, -1.47, 0.21
12257, 0.75, -0.37, 0.58, 0.00, -1.89, 0.07
12258, 0.75, -0.37, 0.58, -0.35, -1.89, 0.14
12259, 0.75, -0.37, 0.57, -0.07, -1.33, 0.00
12260, 0.75, -0.37, 0.57, 1.19, -1.05, 0.63
12261, 0.75, -0.37, 0.58, 2.66, 0.14, 1.05
12262, 0.75, -0.37, 0.57, 3.01, 0.35, 0.84
12263, 0.75, -0.37, 0.57, 2.38, 0.14, 0.07
12264, 0.75, -0.36, 0.57, 1.33, 0.63, -0.07
12265, 0.74, -0.37, 0.57, 0.91, 17.64, 0.42
12266, 0.75, -0.37, 0.58, 1.68, -0.35, 0.35
12267, 0.75, -0.37, 0.58, 1.33, -0.35, 0.42
12268, 0.75, -0.37, 0.58, 1.33, -0.14, 0.35
12269, 0.75, -0.37, 0.58, 1.33, 0.00, 0.35
12270, 0.75, -0.37, 0.58, 0.98, -0.42, 0.42
12271, 0.75, -0.37, 0.58, 0.91, 0.00, 0.42
12272, 0.75, -0.37, 0.57, 1.26, -0.14, 0.84
12273, 0.74, -0.36, 0.58, 1.12, -0.14, 0.42
12274, 0.75, -0.37, 0.58, 0.56, -17.78, 0.84
12275, 0.75, -0.37, 0.58, 1.05, 0.07, 0.84
12276, 0.75, -0.37, 0.58, 0.42, 0.70, 0.21
12277, 0.74, -0.37, 0.58, 1.26, 1.12, 0.35
12278, 0.75, -0.37, 0.59, 0.98, 1.33, 0.00
12279, 0.75, -0.37, 0.59, 0.84, 2.87, -0.28
12280, 0.76, -0.38, 0.59, -0.70, 5.18, -1.33
12281, 0.75, -0.37, 0.59, -0.49, 5.74, -2.03
12282, 0.75, -0.37, 0.59, -0.77, 7.28, -2.59
12283, 0.76, -0.37, 0.60, -1.82, 8.75, -3.78
12284, 0.75, -0.38, 0.60, 0.35, 9.59, -5.46
12285, 0.74, -0.38, 0.60, 0.91, 11.48, -5.67
12286, 0.73, -0.36, 0.59, -0.56, 13.02, -5.32
12287, 0.72, -0.36, 0.59, -0.91, 10.78, -4.20
12288, 0.71, -0.36, 0.60, -0.63, 7.98, -3.57
12289, 0.74, -0.35, 0.61, -1.68, 8.68, -3.01
12290, 0.72, -0.33, 0.62, -0.42, 12.25, -1.89
12291, 0.73, -0.36, 0.61, -0.56, 10.92, -1.61
12292, 0.70, -0.38, 0.60, 0.84, 7.28, 0.35
12293, 0.70, -0.36, 0.61, 2.17, 3.78, 1.75
12294, 0.71, -0.35, 0.63, 1.33, 2.59, 2.73
12295, 0.71, -0.36, 0.63, 1.05, 4.76, 2.45
12296, 0.71, -0.33, 0.64, 2.24, 6.37, 2.03
12297, 0.71, -0.35, 0.64, -0.91, 11.48, 0.49
12298, 0.71, -0.37, 0.62, -3.15, 12.53, -0.84
12299, 0.70, -0.36, 0.64, -2.03, 10.92, -0.07
12300, 0.71, -0.36, 0.65, -3.78, 11.69, -0.77
12301, 0.68, -0.36, 0.67, -1.26, 11.41, -0.49
12302, 0.69, -0.38, 0.65, 0.21, 12.81, 0.63
12303, 0.67, -0.38, 0.62, 1.05, 9.45, 2.03
12304, 0.66, -0.35, 0.66, 3.57, 4.06, 2.94
12305, 0.68, -0.36, 0.66, 3.43, 2.94, 4.27
12306, 0.67, -0.38, 0.65, 2.66, 1.96, 4.27
12307, 0.67, -0.35, 0.66, 3.78, -0.42, 4.20
12308, 0.68, -0.35, 0.67, 3.64, 0.00, 3.57
12309, 0.67, -0.36, 0.66, 1.12, 0.63, 2.24
12310, 0.66, -0.36, 0.67, 0.77, -0.84, 2.45
12311, 0.67, -0.35, 0.70, 0.70, -1.54, 1.05
12312, 0.69, -0.37, 0.67, 0.98, 2.31, 2.38
12313, 0.68, -0.35, 0.67, 0.91, 1.12, 2.31
12314, 0.67, -0.37, 0.66, 0.70, 0.49, 2.73
12315, 0.66, -0.37, 0.66, -0.21, 0.07, 3.01
12316, 0.66, -0.36, 0.67, -1.61, -2.17, 3.29
12317, 0.67, -0.34, 0.68, 0.70, -1.96, 2.52
12318, 0.68, -0.36, 0.67, 1.89, -0.35, 1.19
12319, 0.67, -0.37, 0.66, 2.87, -0.63, 1.89
12320, 0.67, -0.37, 0.66, 2.17, -0.49, 2.03
12321, 0.68, -0.38, 0.67, 3.01, -0.63, 2.52
12322, 0.68, -0.38, 0.66, 3.50, -0.14, 2.94
12323, 0.67, -0.37, 0.67, 3.92, -0.84, 3.22
12324, 0.67, -0.37, 0.67, 2.94, -0.98, 4.20
12325, 0.67, -0.35, 0.67, 3.36, -1.75, 4.48
12326, 0.67, -0.37, 0.67, 4.41, -2.24, 4.41
12327, 0.67, -0.37, 0.67, 2.66, -2.52, 4.27
12328, 0.67, -0.36, 0.68, 2.38, -2.59, 4.13
12329, 0.67, -0.36, 0.68, 1.47, -1.54, 3.22
12330, 0.67, -0.35, 0.68, 2.31, -0.35, 2.38
12331, 0.67, -0.37, 0.67, 2.52, 0.14, 1.33
12332, 0.67, -0.37, 0.67, 1.82, 0.91, 1.33
12333, 0.66, -0.36, 0.67, 0.91, 1.68, 0.91
12334, 0.66, -0.36, 0.67, 0.28, -0.77, -0.21
12335, 0.66, -0.37, 0.67, -0.70, -1.47, 0.00
12336, 0.66, -0.37, 0.67, -0.70, -1.89, 0.00
12337, 0.67, -0.37, 0.67, -0.42, -1.40, 0.07
12338, 0.67, -0.37, 0.67, 0.77, -1.19, 0.14
12339, 0.66, -0.37, 0.67, -0.21, -2.03, 0.35
12340, 0.66, -0.37, 0.67, -0.84, -2.31, 0.49
12341, 0.67, -0.37, 0.67, -0.35, -2.17, 0.49
12342, 0.67, -0.38, 0.67, -0.63, -1.89, 0.42
12343, 0.67, -0.37, 0.67, -0.14, -1.82, 0.56
12344, 0.67, -0.37, 0.67, -0.56, -1.89, 0.56
12345, 0.66, -0.37, 0.67, -0.56, -2.38, 0.63
12346, 0.67, -0.37, 0.67, -1.19, -1.75, -0.42
12347, 0.66, -0.37, 0.67, -0.70, -1.75, 0.21
12348, 0.67, -0.37, 0.67, -1.47, -2.38, 0.35
12349, 0.67, -0.36, 0.67, -0.56, -2.66, 0.77
12350, 0.66, -0.38, 0.67, -2.03, -4.13, 1.96
12351, 0.66, -0.39, 0.68, 2.10, -5.11, 3.22
12352, 0.65, -0.37, 0.67, 0.98, -6.65, 5.53
12353, 0.66, -0.36, 0.67, 1.40, -6.58, 6.51
12354, 0.67, -0.37, 0.67, 1.47, -7.63, 5.32
12355, 0.67, -0.37, 0.67, 1.96, -8.54, 3.92
12356, 0.67, -0.38, 0.67, -0.70, -6.86, 2.66
12357, 0.68, -0.38, 0.66, -0.70, -6.02, 3.01
12358, 0.67, -0.37, 0.66, -0.84, -4.97, 2.87
12359, 0.68, -0.36, 0.65, -1.54, -5.32, 2.17
12360, 0.68, -0.37, 0.65, -3.99, -6.23, 0.56
12361, 0.68, -0.38, 0.65, -7.14, -4.69, -0.42
12362, 0.68, -0.39, 0.65, -4.76, -3.01, 0.63
12363, 0.69, -0.39, 0.65, -9.80, -1.19, -1.47
12364, 0.69, -0.38, 0.64, -11.34, -1.05, -3.15
12365, 0.69, -0.39, 0.64, -13.79, 1.75, -2.52
12366, 0.67, -0.38, 0.64, -16.31, 3.71, -2.94
12367, 0.66, -0.37, 0.63, -18.20, 0.98, -2.24
12368, 0.66, -0.37, 0.63, -20.37, -0.56, -1.75
12369, 0.68, -0.39, 0.65, -22.68, -2.80, -4.13
12370, 0.70, -0.44, 0.66, -22.68, 0.35, -7.56
12371, 0.70, -0.45, 0.63, -20.65, 2.80, -7.28
12372, 0.68, -0.43, 0.62, -16.73, 3.92, -4.90
12373, 0.69, -0.42, 0.63, -12.53, 4.48, -4.90
12374, 0.67, -0.43, 0.61, -11.06, 6.16, -4.90
12375, 0.67, -0.42, 0.59, -8.54, 6.02, -3.50
12376, 0.66, -0.41, 0.60, -3.71, 3.57, -3.29
12377, 0.66, -0.42, 0.61, -3.50, 1.96, -2.94
12378, 0.68, -0.40, 0.63, -5.04, 0.28, -3.01
12379, 0.67, -0.41, 0.62, -6.79, -1.47, -2.45
12380, 0.67, -0.43, 0.64, -6.72, -4.20, -0.91
12381, 0.69, -0.45, 0.65, -7.56, -5.25, -0.21
12382, 0.70, -0.44, 0.65, -9.17, -2.03, -2.87
12383, 0.69, -0.42, 0.63, -10.01, 0.28, -3.78
12384, 0.67, -0.42, 0.62, -9.52, 0.77, -3.57
12385, 0.65, -0.42, 0.59, -6.37, 1.89, -2.73
12386, 0.67, -0.44, 0.60, -2.10, 0.77, -3.29
12387, 0.68, -0.44, 0.61, -2.24, 1.68, -3.99
12388, 0.69, -0.45, 0.61, -3.29, -0.07, -3.08
12389, 0.69, -0.45, 0.61, -1.47, 0.07, -0.14
12390, 0.67, -0.43, 0.61, -2.31, -1.05, 0.70
12391, 0.68, -0.43, 0.62, -7.07, -1.33, -0.70
12392, 0.68, -0.42, 0.62, -10.71, -1.33, 0.42
12393, 0.68, -0.43, 0.61, -10.92, -1.89, 0.35
12394, 0.69, -0.44, 0.61, -9.80, -1.47, 1.82
12395, 0.70, -0.44, 0.62, -6.65, -0.07, 2.73
12396, 0.69, -0.44, 0.63, -8.61, -0.07, 3.08
12397, 0.69, -0.42, 0.62, -12.18, 1.68, -0.14
12398, 0.68, -0.43, 0.62, -14.42, -0.28, -1.89
12399, 0.69, -0.43, 0.62, -14.98, 0.14, -2.52
12400, 0.70, -0.45, 0.61, -15.40, 1.33, -3.78
12401, 0.68, -0.45, 0.60, -13.37, -1.26, -0.98
12402, 0.68, -0.46, 0.57, -12.46, -3.15, -1.89
12403, 0.68, -0.48, 0.57, -10.15, -5.88, 0.42
12404, 0.64, -0.44, 0.55, -8.75, -2.94, 1.12
12405, 0.65, -0.45, 0.54, -11.20, -4.41, 4.41
12406, 0.70, -0.45, 0.57, -10.99, -2.52, 6.51
12407, 0.77, -0.44, 0.59, -17.22, 12.25, -2.45
12408, 0.67, -0.46, 0.58, -25.41, 1.47, 2.24
12409, 0.74, -0.51, 0.57, -19.81, 8.33, 0.91
12410, 0.72, -0.54, 0.57, -16.73, 10.99, 5.46
12411, 0.71, -0.51, 0.58, -22.40, 17.78, -1.47
12412, 0.66, -0.49, 0.56, -22.82, 21.56, -7.14
12413, 0.67, -0.51, 0.53, -20.16, 14.98, -8.19
12414, 0.71, -0.52, 0.58, -2.03, 20.09, 4.41
12415, 0.71, -0.52, 0.58, 4.41, 21.07, 18.13
12416, 0.69, -0.50, 0.56, 1.47, 18.90, 24.99
12417, 0.67, -0.47, 0.58, -1.96, 16.73, 24.64
12418, 0.70, -0.49, 0.64, -6.86, 18.55, 18.55
12419, 0.69, -0.48, 0.62, -2.94, 23.38, 19.18
12420, 0.65, -0.48, 0.63, -0.70, 21.77, 20.23
12421, 0.61, -0.46, 0.63, -8.12, 21.91, 19.53
12422, 0.60, -0.46, 0.62, -9.66, 18.06, 21.84
12423, 0.60, -0.52, 0.62, -12.53, 16.59, 23.10
12424, 0.59, -0.58, 0.62, -14.21, 14.14, 22.40
12425, 0.57, -0.63, 0.58, -15.68, 10.85, 32.13
12426, 0.59, -0.67, 0.63, -2.80, 17.01, 37.59
12427, 0.52, -0.63, 0.65, 2.59, 24.71, 37.52
12428, 0.47, -0.64, 0.64, -9.87, 16.17, 32.06
12429, 0.45, -0.62, 0.64, -17.85, 5.81, 32.90
12430, 0.45, -0.64, 0.63, -19.04, 7.91, 33.81
12431, 0.43, -0.68, 0.61, -10.92, 11.62, 39.41
12432, 0.42, -0.67, 0.60, -6.09, 9.45, 43.33
12433, 0.40, -0.58, 0.64, -1.68, 5.32, 48.16
12434, 0.35, -0.66, 0.60, -1.33, 5.95, 49.84
12435, 0.26, -0.76, 0.59, -8.19, 5.04, 53.34
12436, 0.36, -0.74, 0.61, 5.95, 0.84, 45.22
12437, 0.36, -0.71, 0.65, 9.31, 0.91, 40.39
12438, 0.35, -0.70, 0.63, 4.20, -2.94, 34.86
12439, 0.33, -0.72, 0.62, -3.85, -7.35, 31.01
12440, 0.34, -0.72, 0.61, -1.61, -6.23, 24.22
12441, 0.32, -0.73, 0.62, 1.05, -3.01, 15.96
12442, 0.30, -0.72, 0.61, 6.93, 3.36, -3.01
12443, 0.29, -0.77, 0.60, 6.93, 4.55, -15.12
12444, 0.29, -0.74, 0.61, 5.11, 6.86, -18.55
12445, 0.29, -0.75, 0.61, 8.19, 10.85, -22.68
12446, 0.27, -0.69, 0.67, 5.67, 5.46, -34.93
12447, 0.32, -0.70, 0.64, -3.29, 6.02, -45.71
12448, 0.37, -0.78, 0.60, -4.76, 3.71, -55.58
12449, 0.34, -0.79, 0.63, 6.51, -2.31, -59.99
12450, 0.38, -0.63, 0.60, 11.06, -8.19, -54.04
12451, 0.47, -0.67, 0.65, 2.80, -14.56, -48.58
12452, 0.51, -0.63, 0.67, -3.50, -9.17, -49.77
12453, 0.50, -0.62, 0.66, 0.63, 0.70, -57.89
12454, 0.47, -0.62, 0.64, 0.35, 7.07, -60.62
12455, 0.48, -0.62, 0.63, -0.42, 8.96, -56.21
12456, 0.45, -0.62, 0.64, 1.40, 9.94, -50.68
12457, 0.47, -0.59, 0.66, 2.17, 3.64, -44.59
12458, 0.54, -0.55, 0.67, -9.38, -7.70, -43.40
12459, 0.55, -0.56, 0.65, -15.40, -8.82, -43.19
12460, 0.55, -0.57, 0.64, -11.69, -7.70, -41.58
12461, 0.56, -0.54, 0.64, -5.25, -8.47, -33.25
12462, 0.60, -0.51, 0.64, -13.23, -13.09, -27.23
12463, 0.59, -0.51, 0.62, -14.00, -11.13, -22.82
12464, 0.61, -0.51, 0.62, -11.41, -7.49, -21.84
12465, 0.63, -0.50, 0.61, -8.89, -2.17, -21.77
12466, 0.62, -0.51, 0.60, -5.11, 1.54, -19.25
12467, 0.63, -0.50, 0.62, 4.97, 6.72, -17.29
12468, 0.65, -0.49, 0.61, 7.14, 9.87, -18.69
12469, 0.65, -0.50, 0.61, 8.54, 9.31, -15.82
12470, 0.64, -0.50, 0.63, 12.04, 10.43, -13.02
12471, 0.63, -0.48, 0.63, 12.46, 13.79, -15.26
12472, 0.62, -0.50, 0.61, 18.62, 12.60, -5.25
12473, 0.66, -0.49, 0.67, 22.33, 11.69, 3.57
12474, 0.60, -0.45, 0.71, 11.97, 14.42, -6.58
12475, 0.56, -0.45, 0.68, -6.02, 7.00, -13.02
12476, 0.62, -0.52, 0.66, -5.39, -4.48, -5.25
12477, 0.67, -0.56, 0.66, 6.86, -6.30, 4.13
12478, 0.65, -0.51, 0.65, 10.85, -7.91, 6.93
12479, 0.60, -0.44, 0.66, 15.75, -5.11, 9.24
12480, 0.61, -0.43, 0.67, 18.13, -5.60, 7.56
12481, 0.67, -0.45, 0.67, 12.53, -1.26, -7.49
12482, 0.64, -0.49, 0.63, 9.87, 4.34, -8.75
12483, 0.63, -0.47, 0.64, 19.25, 3.08, -1.96
12484, 0.64, -0.47, 0.68, 15.47, 6.02, -8.19
12485, 0.58, -0.45, 0.68, 17.57, 8.82, -10.43
12486, 0.56, -0.44, 0.67, 14.00, 6.72, -6.02
12487, 0.55, -0.46, 0.72, 19.74, 17.43, 14.56
12488, 0.54, -0.47, 0.69, 26.11, 25.27, 46.69
12489, 0.63, -0.40, 0.74, 10.01, 6.79, 24.71
12490, 0.64, -0.36, 0.69, -1.96, -0.35, -25.34
12491, 0.57, -0.46, 0.72, 11.76, 15.05, -25.76
12492, 0.52, -0.49, 0.73, 25.20, 22.40, -2.38
12493, 0.48, -0.36, 0.66, 7.77, 16.59, -3.01
12494, 0.25, -0.18, 0.61, -37.87, -9.31, -31.08
12495, 0.30, -0.22, 0.59, -45.15, -34.44, -7.98
12496, 0.55, 0.02, 0.61, -112.28, -133.84, -101.85
12497, 0.55, -0.34, 0.77, -116.34, -149.31, -139.09
12498, 0.72, -0.44, 0.71, -81.83, -113.19, -123.34
12499, 0.70, -0.51, 0.63, -104.23, -95.69, -89.81
12500, 0.71, -0.41, 0.44, -83.58, -86.80, -44.52
12501, 0.63, -0.45, 0.52, -35.21, -89.04, -23.38
12502, 0.86, -0.64, 0.57, -28.63, -41.44, -49.63
12503, 0.99, -0.59, 0.28, -34.93, -13.65, -50.26
12504, 0.87, -0.38, 0.42, -3.78, -14.07, -28.07
12505, 0.89, -0.39, 0.41, -20.51, -21.49, -23.03
12506, 0.86, -0.42, 0.34, -23.52, -38.01, -8.68
12507, 0.84, -0.42, 0.31, -22.82, -44.17, 1.89
12508, 0.85, -0.42, 0.27, -23.31, -44.94, -0.21
12509, 0.82, -0.42, 0.25, -15.89, -45.92, -4.97
12510, 0.82, -0.42, 0.24, -14.21, -51.45, -9.45
12511, 0.85, -0.40, 0.24, -3.57, -60.41, -8.82
12512, 0.86, -0.36, 0.25, 6.72, -69.37, -6.16
12513, 0.87, -0.32, 0.16, 2.38, -82.67, -7.56
12514, 0.91, -0.32, 0.14, -4.48, -99.61, -13.51
12515, 0.93, -0.31, 0.06, -28.49, -108.85, -25.48
12516, 1.01, -0.40, 0.07, -29.05, -117.32, -25.34
12517, 1.03, -0.38, 0.01, -29.82, -113.12, -26.25
12518, 1.10, -0.37, -0.01, -17.57, -91.49, -34.72
12519, 1.06, -0.36, -0.04, -16.17, -75.74, -37.17
12520, 1.08, -0.31, -0.08, -24.29, -62.51, -36.61
12521, 1.03, -0.25, -0.09, -29.82, -47.60, -33.67
12522, 1.02, -0.26, -0.11, -41.37, -45.29, -29.96
12523, 1.08, -0.24, -0.13, -53.48, -42.35, -22.33
12524, 1.00, -0.21, -0.15, -60.90, -23.31, -26.74
12525, 0.96, -0.20, -0.19, -60.48, -20.58, -26.67
12526, 0.97, -0.21, -0.21, -55.86, -24.99, -28.35
12527, 1.01, -0.23, -0.26, -26.53, -11.06, -6.02
12528, 0.99, -0.23, -0.28, -22.33, -9.52, -9.94
12529, 0.97, -0.20, -0.21, -42.56, -8.33, -9.59
12530, 0.97, -0.19, -0.24, -50.96, -6.65, -16.80
12531, 0.96, -0.21, -0.26, -39.62, -10.57, -9.59
12532, 0.95, -0.16, -0.24, -49.49, -5.39, -18.90
12533, 0.95, -0.16, -0.25, -35.35, -6.58, -9.17
12534, 0.95, -0.13, -0.23, -44.24, -5.81, -13.37
12535, 0.93, -0.16, -0.26, -30.45, -5.95, -6.72
12536, 0.99, -0.10, -0.37, -66.01, 5.81, -28.70
12537, 0.93, -0.18, -0.25, -15.47, 3.15, -1.75
12538, 0.98, -0.14, -0.24, -16.87, 6.79, -4.34
12539, 0.97, -0.12, -0.25, -10.92, 11.48, -1.05
12540, 0.97, -0.25, -0.28, -5.04, 12.18, -3.22
12541, 0.97, -0.11, -0.27, -2.80, 8.12, -2.73
12542, 1.01, -0.09, -0.25, -0.28, 20.23, -3.78
12543, 0.99, -0.05, -0.22, -1.96, 32.13, -1.61
12544, 0.95, -0.05, -0.21, -11.06, 30.31, 4.69
12545, 0.97, -0.08, -0.19, -11.27, 18.27, 13.44
12546, 0.96, -0.08, -0.16, -22.96, 16.87, 11.97
12547, 0.98, -0.10, -0.16, -21.84, 17.08, 24.78
12548, 0.99, -0.12, -0.19, -16.17, 15.89, 27.44
12549, 1.00, -0.18, -0.18, -18.55, 15.40, 21.70
12550, 1.00, -0.18, -0.19, 0.49, 25.13, 33.74
12551, 0.98, -0.17, -0.16, 7.00, 25.13, 40.04
12552, 1.00, -0.17, -0.13, 12.18, 28.07, 41.37
12553, 0.96, -0.18, -0.13, 12.25, 31.43, 43.61
12554, 0.92, -0.18, -0.10, 15.26, 29.54, 46.34
12555, 0.94, -0.22, -0.08, 12.18, 28.49, 44.38
12556, 0.93, -0.25, -0.09, 16.59, 23.87, 40.32
12557, 0.96, -0.31, -0.04, 16.31, 11.20, 42.28
12558, 0.93, -0.32, -0.04, 22.96, 11.62, 43.19
12559, 0.93, -0.34, -0.04, 30.10, 10.57, 41.65
12560, 0.94, -0.36, -0.03, 30.38, 8.61, 37.31
12561, 0.91, -0.35, -0.02, 26.39, 6.93, 30.73
12562, 0.91, -0.38, -0.02, 24.15, 3.92, 26.46
12563, 0.92, -0.40, -0.00, 24.22, 0.00, 25.06
12564, 0.94, -0.39, 0.01, 21.70, 0.70, 21.91
12565, 0.93, -0.41, 0.01, 17.36, -0.14, 17.92
12566, 0.91, -0.41, 0.00, 17.78, -2.73, 18.62
12567, 0.91, -0.39, 0.02, 16.87, -3.92, 17.36
12568, 0.92, -0.42, 0.01, 18.55, -11.62, 18.13
12569, 0.91, -0.41, -0.00, 29.05, -14.70, 21.28
12570, 0.92, -0.43, -0.02, 34.72, -20.86, 26.11
12571, 0.92, -0.45, -0.02, 40.18, -28.07, 31.50
12572, 0.85, -0.40, -0.02, 56.56, -21.77, 12.25
12573, 0.90, -0.45, -0.02, 53.27, -27.79, 22.68
12574, 0.85, -0.44, 0.01, 45.50, -20.79, 18.27
12575, 0.84, -0.44, 0.01, 40.60, -19.95, 14.28
12576, 0.84, -0.49, -0.02, 29.89, -21.35, 12.53
12577, 0.83, -0.46, -0.01, 32.34, -24.85, 14.42
12578, 0.85, -0.49, -0.01, 22.54, -25.06, 5.25
12579, 0.87, -0.50, -0.03, 24.01, -26.46, -1.61
12580, 0.87, -0.47, -0.01, 22.82, -29.54, -2.87
12581, 0.85, -0.47, -0.03, 5.67, -26.53, -9.87
12582, 0.86, -0.49, -0.04, -4.69, -28.49, -14.07
12583, 0.89, -0.48, -0.06, -3.57, -36.54, -11.55
12584, 0.91, -0.46, -0.07, 0.70, -42.49, -8.12
12585, 0.90, -0.44, -0.07, -0.84, -38.78, -7.63
12586, 0.88, -0.45, -0.09, -6.37, -34.44, -16.73
12587, 0.90, -0.46, -0.13, -6.65, -32.20, -16.80
12588, 0.90, -0.44, -0.13, 4.06, -27.23, -16.24
12589, 0.89, -0.43, -0.13, 4.20, -26.95, -15.26
12590, 0.88, -0.42, -0.14, -9.24, -24.99, -19.60
12591, 0.87, -0.43, -0.16, -21.28, -24.99, -21.70
12592, 0.89, -0.44, -0.17, -18.90, -25.13, -20.37
12593, 0.88, -0.38, -0.15, -20.79, -22.19, -26.60
12594, 0.88, -0.38, -0.17, -24.50, -19.18, -37.59
12595, 0.84, -0.35, -0.17, -14.56, -26.60, -40.39
12596, 0.91, -0.44, -0.24, 41.37, -31.01, -0.21
12597, 0.87, -0.43, -0.24, 28.56, -39.06, -0.98
12598, 0.87, -0.44, -0.23, 36.68, -45.15, -5.88
12599, 0.85, -0.43, -0.36, 28.35, -63.14, -8.05
12600, 0.84, -0.43, -0.24, 30.80, -85.40, -7.42
12601, 0.89, -0.41, -0.29, 25.13, -83.37, -2.24
12602, 0.87, -0.39, -0.31, 29.33, -81.20, -7.07
12603, 0.88, -0.37, -0.35, 35.56, -88.48, -6.58
12604, 0.74, -0.39, -0.34, 26.11, -91.91, 25.06
12605, 0.94, -0.43, -0.46, 12.32, -65.66, 2.31
12606, 0.81, -0.40, -0.39, -7.35, 0.07, 4.20
12607, 0.84, -0.35, -0.43, -11.69, -5.18, -1.61
12608, 0.81, -0.42, -0.43, -13.16, 1.89, -2.10
12609, 0.81, -0.44, -0.36, 0.14, -3.22, 0.21
12610, 0.87, -0.33, -0.39, -10.36, -4.34, 3.57
12611, 0.80, -0.42, -0.41, -0.14, -6.72, 4.76
12612, 0.82, -0.41, -0.43, -4.55, -7.00, 1.47
12613, 0.82, -0.37, -0.44, -9.59, -8.68, 13.09
12614, 0.80, -0.42, -0.44, -7.28, -11.20, 9.73
12615, 0.79, -0.40, -0.47, -7.70, -9.80, 10.22
12616, 0.79, -0.41, -0.45, -3.50, -8.75, 12.81
12617, 0.79, -0.41, -0.44, -0.07, -4.06, 8.19
12618, 0.77, -0.42, -0.45, 2.31, -1.89, 0.00
12619, 0.79, -0.42, -0.44, 3.78, 2.73, -5.25
12620, 0.80, -0.43, -0.43, 3.22, 2.10, -5.32
12621, 0.80, -0.42, -0.43, 1.75, 0.14, 0.35
12622, 0.79, -0.42, -0.43, 3.15, -0.42, 3.36
12623, 0.79, -0.43, -0.42, 3.71, 0.14, 3.36
12624, 0.80, -0.43, -0.42, 1.26, -1.61, 5.60
12625, 0.80, -0.43, -0.42, 0.84, -4.90, 6.86
12626, 0.79, -0.43, -0.43, -0.49, -5.32, 5.25
12627, 0.79, -0.44, -0.43, -0.28, -4.62, 1.96
12628, 0.79, -0.44, -0.43, 0.84, -3.01, -0.07
12629, 0.80, -0.42, -0.43, 3.78, -1.19, -0.56
12630, 0.79, -0.44, -0.43, 4.13, 0.70, -0.84
12631, 0.80, -0.44, -0.42, 3.92, -0.77, 1.47
12632, 0.78, -0.45, -0.41, 11.13, -2.10, 3.50
12633, 0.82, -0.46, -0.42, 14.84, -3.36, 3.78
12634, 0.80, -0.44, -0.43, 16.45, -6.44, -10.15
12635, 0.80, -0.44, -0.41, 3.01, -2.94, -2.03
12636, 0.71, -0.58, -0.46, 24.85, -20.37, 3.15
12637, 0.83, -0.40, -0.41, 9.59, -2.17, -4.27
12638, 0.75, -0.60, -0.43, 22.05, -13.79, 0.63
12639, 0.77, -0.53, -0.41, 21.28, -11.62, 8.12
12640, 0.90, -0.19, -0.40, -7.21, -3.85, -7.56
12641, 0.79, -0.48, -0.44, 3.71, -5.25, -1.47
12642, 0.79, -0.43, -0.44, 1.26, -6.30, -0.98
12643, 0.82, -0.43, -0.46, -5.81, -7.77, -4.48
12644, 0.79, -0.46, -0.43, 2.80, -3.43, -1.33
12645, 0.77, -0.45, -0.44, -0.98, -4.69, -1.75
12646, 0.79, -0.45, -0.44, -0.84, -2.38, -1.89
12647, 0.78, -0.45, -0.44, 1.33, -2.66, 1.75
12648, 0.77, -0.45, -0.44, 1.19, 0.07, 0.63
12649, 0.78, -0.45, -0.43, 3.36, 1.75, 0.56
12650, 0.78, -0.45, -0.43, 2.45, 1.75, 1.68
12651, 0.78, -0.46, -0.43, 1.75, 0.63, 1.47
12652, 0.78, -0.45, -0.42, 0.49, 0.00, 0.35
12653, 0.78, -0.46, -0.43, 1.96, -0.07, -1.12
12654, 0.78, -0.45, -0.43, 1.05, -0.07, -2.52
12655, 0.78, -0.45, -0.43, 0.00, -1.33, -1.05
12656, 0.78, -0.46, -0.42, -0.07, -1.96, 0.84
12657, 0.78, -0.45, -0.43, 0.14, -1.89, 0.49
12658, 0.78, -0.45, -0.43, 17.71, -2.03, 0.77
12659, 0.78, -0.45, -0.43, 0.42, -1.54, 1.26
12660, 0.78, -0.45, -0.43, 0.49, -0.77, 0.98
12661, 0.78, -0.45, -0.43, 1.19, -0.84, 1.75
12662, 0.78, -0.45, -0.42, 0.56, -1.12, 1.47
12663, 0.78, -0.46, -0.42, 1.19, -0.49, -0.91
12664, 0.78, -0.45, -0.43, 0.77, -0.28, -1.61
12665, 0.78, -0.46, -0.43, 1.05, -0.49, -2.03
12666, 0.78, -0.45, -0.42, 1.40, -0.28, -1.61
12667, 0.77, -0.50, -0.43, 7.00, -3.57, 1.33
12668, 0.77, -0.51, -0.43, 5.11, -2.17, 2.80
12669, 0.80, -0.42, -0.42, 5.95, -6.65, -3.29
12670, 0.96, -0.25, -0.39, -4.62, -4.48, -3.43
12671, 0.78, -0.45, -0.42, -4.34, -2.73, 0.63
12672, 0.78, -0.46, -0.43, -3.15, -4.41, -1.05
12673, 0.77, -0.45, -0.43, -2.31, -4.41, -1.19
12674, 0.77, -0.45, -0.43, -1.96, -4.13, -1.40
12675, 0.78, -0.45, -0.44, -1.82, -3.92, -0.07
12676, 0.77, -0.45, -0.44, -0.70, -2.52, -0.49
12677, 0.77, -0.45, -0.44, 1.61, -0.42, -1.33
12678, 0.77, -0.45, -0.44, 1.82, 0.84, -1.40
12679, 0.77, -0.45, -0.43, 2.45, 1.05, -0.28
12680, 0.77, -0.45, -0.43, 1.89, 0.77, 0.91
12681, 0.77, -0.46, -0.43, 0.91, -17.92, 0.84
12682, 0.77, -0.45, -0.43, 0.49, -0.77, 0.91
12683, 0.78, -0.45, -0.43, 0.07, -2.31, 0.70
12684, 0.78, -0.46, -0.43, 0.07, -1.68, 0.70
12685, 0.78, -0.46, -0.43, -17.36, -1.68, 1.75
12686, 0.77, -0.45, -0.44, -0.07, -2.24, 2.38
12687, 0.77, -0.46, -0.43, 0.35, -1.82, 2.17
12688, 0.77, -0.46, -0.43, 0.21, -1.89, 1.96
12689, 0.77, -0.46, -0.43, 0.56, -1.61, 0.63
12690, 0.77, -0.46, -0.43, 0.35, -0.98, -0.56
12691, 0.78, -0.46, -0.43, 0.21, -1.12, -0.42
12692, 0.77, -0.46, -0.43, -0.07, -0.98, -0.70
12693, 0.77, -0.46, -0.43, 0.21, -0.70, -1.05
12694, 0.78, -0.46, -0.43, -0.07, -1.05, -0.98
12695, 0.77, -0.46, -0.43, 0.77, -0.35, -1.05
12696, 0.78, -0.45, -0.43, 0.35, -0.98, 0.07
12697, 0.78, -0.46, -0.43, -0.07, -1.61, 1.33
12698, 0.78, -0.46, -0.43, -0.35, -2.73, 1.54
12699, 0.77, -0.45, -0.43, -1.33, -2.94, 1.54
12700, 0.77, -0.45, -0.44, -1.05, -2.31, 1.40
12701, 0.77, -0.45, -0.43, 0.00, -2.17, 0.42
12704, 0.77, -0.45, -0.44, 0.98, -0.49, -0.70
12705, 0.77, -0.46, -0.44, 0.70, 0.21, 0.07
12706, 0.78, -0.45, -0.44, 0.91, -0.56, 0.84
12707, 0.77, -0.45, -0.43, 0.35, -0.91, 1.26
12708, 0.77, -0.46, -0.43, 0.21, -0.91, 1.19
12709, 0.77, -0.45, -0.43, 0.35, -1.19, 0.98
12710, 0.77, -0.46, -0.43, 0.28, -1.40, 0.42
12711, 0.77, -0.46, -0.43, 0.14, -1.26, 0.49
12712, 0.78, -0.46, -0.43, 0.07, -1.40, 0.91
12713, 0.77, -0.46, -0.44, 0.91, -1.12, 0.63
12714, 0.77, -0.45, -0.43, 0.49, -0.91, 1.33
12715, 0.77, -0.46, -0.43, 0.98, -0.21, 1.82
12716, 0.77, -0.46, -0.43, 1.47, -0.84, 1.33
12717, 0.77, -0.46, -0.43, 0.91, -0.91, 0.00
12718, 0.77, -0.46, -0.43, 0.63, -0.28, -0.70
12719, 0.77, -0.46, -0.43, -0.42, -0.28, -1.26
12720, 0.77, -0.46, -0.43, 0.00, -0.70, -0.84
12721, 0.77, -0.46, -0.43, 0.07, -0.84, -0.14
12722, 0.77, -0.46, -0.43, 0.21, -0.70, 0.00
12723, 0.77, -0.46, -0.43, 0.56, -0.49, -0.28
12724, 0.77, -0.46, -0.43, -0.70, -0.28, -0.77
12725, 0.78, -0.46, -0.43, -1.96, -0.98, -0.42
12726, 0.77, -0.46, -0.44, -1.75, -0.91, -0.14
12727, 0.78, -0.45, -0.43, -0.98, -2.38, 0.98
12728, 0.75, -0.44, -0.46, -3.15, -4.62, -0.63
12729, 0.78, -0.45, -0.44, -1.89, -2.59, 0.14
12730, 0.77, -0.45, -0.44, 0.28, -1.19, 0.14
12731, 0.77, -0.45, -0.44, 0.21, -1.12, 0.63
12732, 0.77, -0.45, -0.44, 0.77, 0.14, 0.91
12733, 0.77, -0.45, -0.43, 2.03, 0.63, 0.14
12734, 0.77, -0.45, -0.43, 1.54, 0.77, -0.07
12735, 0.78, -0.45, -0.43, 0.56, 0.14, -0.28
12736, 0.77, -0.45, -0.43, 0.42, -0.28, -0.14
12737, 0.78, -0.45, -0.43, 0.07, -1.47, 0.35
12738, 0.77, -0.45, -0.43, 0.28, -1.54, 0.21
12739, 0.78, -0.45, -0.43, -0.42, -1.68, 0.28
12740, 0.78, -0.45, -0.43, -0.21, -1.61, 0.07
12741, 0.78, -0.45, -0.43, -0.07, -1.47, 0.35
12742, 0.77, -0.45, -0.43, 0.07, -1.47, 0.77
12743, 0.77, -0.45, -0.43, 1.33, -1.40, 0.56
12744, 0.77, -0.45, -0.43, 0.56, -0.56, 0.07
12745, 0.78, -0.45, -0.43, -0.42, -0.14, -0.21
12746, 0.78, -0.45, -0.43, 0.91, -0.98, 0.56
12747, 0.77, -0.45, -0.43, 1.19, -1.47, 1.40
12748, 0.77, -0.46, -0.43, 0.56, -1.19, 0.84
12749, 0.78, -0.46, -0.43, 0.35, -1.26, 0.84
12750, 0.77, -0.45, -0.43, 0.35, -1.33, -0.14
12751, 0.77, -0.46, -0.43, 0.49, -0.77, -1.05
12752, 0.78, -0.45, -0.43, 0.00, -0.84, -0.91
12753, 0.78, -0.46, -0.43, -0.07, -0.56, -2.17
12754, 0.78, -0.45, -0.43, -0.14, -0.21, -3.08
12755, 0.78, -0.45, -0.43, -0.63, -0.70, -1.68
12756, 0.78, -0.45, -0.43, -0.77, -1.68, -0.07
12757, 0.78, -0.45, -0.43, -0.21, -2.52, 1.19
12758, 0.78, -0.45, -0.43, -0.35, -2.66, 0.77
12759, 0.78, -0.45, -0.43, -1.05, -2.87, 0.56
12760, 0.78, -0.45, -0.44, 0.91, -3.85, 0.00
12761, 0.77, -0.45, -0.44, -0.49, -1.75, -0.49
12762, 0.77, -0.45, -0.43, 0.28, 0.07, 0.35
12763, 0.77, -0.45, -0.44, 0.63, 0.56, 0.91
12764, 0.78, -0.45, -0.43, 1.75, 1.19, -0.49
12765, 0.78, -0.45, -0.43, 1.75, 1.68, -0.70
12766, 0.78, -0.45, -0.43, 1.12, 1.05, -1.05
12767, 0.78, -0.45, -0.43, 0.42, -0.35, -1.19
12768, 0.78, -0.45, -0.43, 0.77, -0.84, -1.40
12769, 0.78, -0.45, -0.43, -0.21, -0.98, -0.63
12770, 0.78, -0.45, -0.43, -0.07, -1.40, -0.21
12771, 0.78, -0.45, -0.43, -0.07, -0.70, 0.14
12772, 0.78, -0.45, -0.43, 0.28, -1.05, 0.91
12773, 0.78, -0.45, -0.43, 0.49, -1.61, 1.12
12774, 0.78, -0.45, -0.43, 0.35, -0.77, 0.42
12775, 0.78, -0.45, -0.43, 0.91, -0.07, 0.21
12776, 0.78, -0.45, -0.43, 0.70, 0.00, -0.28
12777, 0.78, -0.45, -0.43, 0.42, -0.14, -0.49
12778, 0.78, -0.45, -0.43, 0.28, -1.33, 0.63
12779, 0.78, -0.45, -0.43, 1.19, -0.84, 0.00
12780, 0.78, -0.45, -0.43, 0.84, -0.70, 0.28
12781, 0.78, -0.45, -0.43, 0.63, -1.19, -0.07
12782, 0.78, -0.45, -0.43, 0.63, -0.56, -1.33
12783, 0.78, -0.45, -0.43, 0.77, -0.77, -1.89
12784, 0.78, -0.45, -0.43, -0.84, -0.77, -1.19
12785, 0.78, -0.44, -0.43, -0.28, -0.35, -1.33
12786, 0.78, -0.45, -0.43, -1.19, -0.56, -2.52
12787, 0.78, -0.45, -0.43, -1.82, -0.49, -1.47
12788, 0.79, -0.45, -0.42, -5.11, -5.95, 0.63
12789, 0.78, -0.44, -0.43, -2.17, -3.50, 1.75
12790, 0.78, -0.44, -0.43, -2.24, -2.45, 1.26
12791, 0.78, -0.44, -0.43, -1.68, -3.15, 0.63
12792, 0.78, -0.44, -0.44, -0.98, -2.31, 0.00
12793, 0.78, -0.44, -0.44, 0.00, -0.56, -0.77
12794, 0.78, -0.44, -0.43, 0.28, 0.21, -0.77
12795, 0.78, -0.44, -0.43, 0.56, 0.77, -1.40
12796, 0.78, -0.44, -0.44, 1.33, 1.05, -0.91
12797, 0.78, -0.44, -0.43, 1.68, 1.05, -0.70
12798, 0.78, -0.44, -0.43, 0.84, 0.00, -0.07
12799, 0.78, -0.44, -0.43, 0.42, -0.70, 0.14
12800, 0.79, -0.44, -0.43, 0.35, -1.47, 0.63
12801, 0.78, -0.44, -0.43, 0.07, -1.75, 0.98
12802, 0.78, -0.44, -0.43, 0.14, -1.68, 1.47
12803, 0.78, -0.44, -0.43, 1.12, -1.19, 1.47
12804, 0.78, -0.44, -0.43, 0.70, -0.70, 0.42
12805, 0.78, -0.44, -0.43, 0.63, -1.54, 0.07
12806, 0.78, -0.44, -0.43, 0.56, -0.42, -0.42
12807, 0.78, -0.44, -0.43, 0.28, -0.14, -0.14
12808, 0.78, -0.44, -0.43, 0.42, -0.91, 0.35
12809, 0.78, -0.44, -0.43, 0.35, -1.26, 0.91
12810, 0.78, -0.44, -0.43, 1.05, -0.63, 0.49
12811, 0.78, -0.44, -0.43, 0.63, -0.77, 0.07
12812, 0.78, -0.44, -0.43, 0.91, -0.77, -1.05
12813, 0.78, -0.44, -0.43, 0.77, -0.49, -1.96
12814, 0.78, -0.44, -0.43, 0.77, -0.49, -1.96
12815, 0.79, -0.44, -0.43, -0.56, 0.07, -2.59
12816, 0.79, -0.44, -0.43, -0.28, -0.21, -2.24
12817, 0.79, -0.44, -0.43, 0.00, -0.28, -2.31
12818, 0.79, -0.43, -0.43, -0.77, -2.03, -0.49
12819, 0.79, -0.44, -0.43, -1.12, -1.82, 0.98
12820, 0.79, -0.44, -0.43, -0.63, -2.03, 1.05
12821, 0.79, -0.43, -0.43, -0.84, -2.45, 0.56
12822, 0.79, -0.44, -0.43, -1.54, -2.38, 0.84
12823, 0.79, -0.43, -0.43, -1.47, -2.80, 1.47
12824, 0.78, -0.43, -0.43, -0.49, -2.17, 0.98
12825, 0.79, -0.44, -0.43, 0.14, -0.91, 0.63
12826, 0.78, -0.44, -0.43, 0.28, -0.21, 0.28
12827, 0.78, -0.43, -0.44, 1.26, 0.35, 0.70
12828, 0.78, -0.44, -0.43, 2.10, 0.70, 1.05
12829, 0.79, -0.44, -0.43, 1.61, 0.56, -0.07
12830, 0.78, -0.44, -0.43, 1.05, -0.14, -0.42
12831, 0.79, -0.44, -0.43, 0.98, -0.28, -0.49
12832, 0.79, -0.44, -0.43, 0.42, -1.47, 0.42
12833, 0.79, -0.44, -0.43, 1.33, -1.82, 1.05
12834, 0.79, -0.44, -0.43, 0.00, -1.47, 0.98
12835, 0.78, -0.44, -0.43, -0.21, -0.56, 1.19
12836, 0.79, -0.44, -0.43, 0.14, -1.33, 1.05
12837, 0.78, -0.44, -0.43, 0.42, -0.77, 0.70
12838, 0.79, -0.44, -0.43, 0.21, -1.12, 0.07
12839, 0.79, -0.44, -0.43, 0.49, -0.98, 0.77
12840, 0.79, -0.44, -0.43, 0.63, -0.63, 0.70
12841, 0.79, -0.44, -0.43, 0.56, -1.19, 1.61
12842, 0.79, -0.44, -0.43, 0.42, -1.33, 1.12
12843, 0.78, -0.44, -0.43, 0.49, -0.91, -0.35
12844, 0.79, -0.44, -0.43, 0.28, -0.77, -1.47
12845, 0.79, -0.44, -0.43, -0.21, -0.28, -1.89
12846, 0.79, -0.44, -0.43, -0.56, -0.21, -1.40
12847, 0.79, -0.43, -0.43, -1.05, -0.35, -1.33
12848, 0.79, -0.44, -0.42, 0.07, -0.70, -1.47
12849, 0.79, -0.43, -0.43, -0.07, -0.56, -0.84
12850, 0.79, -0.44, -0.43, -0.91, -1.12, 0.28
12851, 0.79, -0.44, -0.43, -1.75, -1.82, 0.35
12852, 0.79, -0.43, -0.43, -2.59, -2.24, 0.84
12853, 0.79, -0.44, -0.43, -2.03, -3.15, 1.75
12854, 0.79, -0.43, -0.43, -1.47, -3.29, 1.96
12855, 0.79, -0.43, -0.43, -1.47, -2.80, 1.82
12856, 0.78, -0.43, -0.43, -1.47, -2.52, 0.91
12857, 0.79, -0.43, -0.43, -0.14, -1.61, -0.56
12858, 0.78, -0.43, -0.43, 0.56, -0.28, -0.42
12859, 0.79, -0.42, -0.44, 1.40, 0.28, 0.49
12860, 0.79, -0.43, -0.43, 3.43, 0.28, 2.66
12861, 0.79, -0.44, -0.43, 2.38, 0.00, 1.82
12862, 0.79, -0.44, -0.43, 1.75, -0.07, 0.21
12863, 0.79, -0.44, -0.43, 1.05, -0.77, -0.91
12864, 0.79, -0.44, -0.43, 0.56, -0.35, -0.70
12865, 0.79, -0.44, -0.43, 0.98, -0.84, 0.35
12866, 0.79, -0.44, -0.43, 0.28, -1.40, 0.28
12867, 0.79, -0.43, -0.43, 0.35, -1.05, 0.28
12868, 0.79, -0.44, -0.43, 0.35, -1.12, 0.21
12869, 0.78, -0.43, -0.43, 0.42, -0.91, -0.28
12870, 0.79, -0.44, -0.43, 0.00, -0.84, -0.42
12871, 0.79, -0.43, -0.43, 0.63, -0.56, 0.84
12872, 0.79, -0.43, -0.43, 1.12, -1.05, 2.24
12873, 0.78, -0.44, -0.42, 1.19, -1.12, 2.59
12874, 0.78, -0.44, -0.43, 0.56, -1.05, 0.63
12875, 0.78, -0.44, -0.43, 0.77, 0.00, -2.17
12876, 0.79, -0.43, -0.43, 0.84, 0.35, -2.73
12877, 0.79, -0.44, -0.43, 0.21, 0.21, -2.80
12878, 0.79, -0.44, -0.42, 0.21, -0.28, -2.87
12879, 0.79, -0.43, -0.43, -0.70, -0.42, -1.96
12880, 0.79, -0.43, -0.43, -0.56, -0.21, -1.61
12881, 0.79, -0.43, -0.42, -0.91, -1.26, -2.59
12882, 0.79, -0.43, -0.42, -0.28, -1.26, -0.21
12883, 0.79, -0.43, -0.43, -1.82, -2.10, 0.56
12884, 0.79, -0.43, -0.43, -2.80, -2.45, 1.96
12885, 0.79, -0.43, -0.43, -0.98, -2.66, 2.17
12886, 0.79, -0.43, -0.43, -0.63, -2.38, 2.80
12887, 0.79, -0.43, -0.43, -0.70, -2.45, 2.73
12888, 0.79, -0.43, -0.43, -0.56, -1.96, 2.10
12889, 0.79, -0.43, -0.43, 0.42, -0.91, 0.07
12890, 0.79, -0.43, -0.44, 1.40, -0.28, -0.07
12891, 0.79, -0.43, -0.43, 2.45, 0.35, 0.28
12892, 0.79, -0.43, -0.43, 2.38, 0.84, 1.33
12893, 0.79, -0.43, -0.43, 2.03, -0.49, 0.28
12894, 0.79, -0.43, -0.43, 0.91, -0.77, -0.28
12895, 0.79, -0.44, -0.43, 0.35, -0.70, -1.26
12896, 0.79, -0.43, -0.43, 0.21, -1.33, -0.63
12897, 0.79, -0.43, -0.43, 0.14, -1.12, 0.42
12898, 0.79, -0.43, -0.43, 0.49, -1.19, 0.42
12899, 0.79, -0.43, -0.43, 0.35, -1.19, 1.05
12900, 0.79, -0.43, -0.43, 0.84, -0.91, 1.33
12901, 0.79, -0.43, -0.43, 0.21, -1.40, 1.26
12902, 0.79, -0.43, -0.43, 0.28, -1.19, 0.42
12903, 0.79, -0.43, -0.43, 0.56, -0.42, 0.00
12904, 0.79, -0.43, -0.43, 0.70, -0.84, 1.19
12905, 0.79, -0.44, -0.43, 0.77, -1.40, 1.68
12906, 0.79, -0.44, -0.43, 0.35, -1.12, -0.70
12907, 0.79, -0.43, -0.42, 0.42, -0.77, -1.68
12908, 0.79, -0.43, -0.43, -0.14, -1.26, -2.24
12909, 0.79, -0.43, -0.43, -0.28, -0.35, -2.03
12910, 0.79, -0.43, -0.43, 1.61, 0.28, -1.47
12911, 0.79, -0.43, -0.42, 0.21, -0.56, -0.77
12912, 0.79, -0.43, -0.43, -0.35, -0.77, -1.26
12913, 0.78, -0.43, -0.43, -0.98, -0.56, -1.96
12914, 0.79, -0.43, -0.42, -1.82, -1.05, -1.05
12915, 0.80, -0.43, -0.42, -2.87, -2.17, 0.07
12916, 0.79, -0.43, -0.43, -3.99, -3.57, 1.05
12917, 0.79, -0.42, -0.44, -3.15, -3.78, 1.61
12918, 0.79, -0.43, -0.43, -1.19, -3.29, 2.45
12919, 0.79, -0.43, -0.43, -1.12, -3.08, 3.15
12920, 0.79, -0.43, -0.43, -0.28, -2.03, 1.89
12921, 0.79, -0.43, -0.43, 0.07, -0.70, -0.84
12922, 0.79, -0.42, -0.44, 1.19, -0.14, -1.19
12923, 0.79, -0.42, -0.43, 4.34, 0.21, 0.91
12924, 0.79, -0.43, -0.43, 3.71, 0.21, 3.36
12925, 0.79, -0.43, -0.43, 2.52, 0.14, 2.24
12926, 0.79, -0.43, -0.43, 2.10, -1.05, 0.70
12927, 0.79, -0.43, -0.43, 0.00, 0.21, 0.14
12928, 0.79, -0.43, -0.43, 0.28, -1.12, 0.14
12929, 0.79, -0.43, -0.43, 0.35, -0.77, -0.35
12930, 0.79, -0.43, -0.43, 0.21, -1.05, -0.70
12931, 0.79, -0.43, -0.43, 0.35, -0.91, 0.14
12932, 0.79, -0.43, -0.43, 0.70, -1.05, 1.40
12933, 0.79, -0.43, -0.43, 0.35, -1.26, 1.26
12934, 0.79, -0.43, -0.43, 0.49, -1.05, 0.63
12935, 0.79, -0.43, -0.43, 0.91, 0.00, 0.35
12936, 0.79, -0.43, -0.43, 0.98, -0.14, 0.07
12937, 0.79, -0.43, -0.43, 0.56, -0.49, -0.42
12938, 0.79, -0.43, -0.43, 1.40, -0.14, -1.54
12939, 0.79, -0.43, -0.43, 0.77, -0.28, -2.03
12940, 0.79, -0.43, -0.42, -0.21, -0.84, -2.17
12941, 0.79, -0.43, -0.43, -0.91, -0.35, -1.82
12942, 0.79, -0.43, -0.43, -1.12, -0.49, -3.08
12943, 0.80, -0.43, -0.43, -0.21, -0.28, -2.24
12944, 0.80, -0.43, -0.42, 0.00, -0.63, -1.47
12945, 0.80, -0.43, -0.42, -0.91, -1.26, -0.70
12946, 0.80, -0.42, -0.43, -1.54, -2.52, 0.56
12947, 0.79, -0.42, -0.43, -0.49, -2.73, 1.19
12948, 0.79, -0.43, -0.43, -0.70, -2.66, 1.12
12949, 0.80, -0.43, -0.43, -0.84, -2.45, 1.54
12950, 0.79, -0.43, -0.43, -0.35, -2.31, 1.75
12951, 0.79, -0.43, -0.43, -0.07, -1.82, -0.21
12952, 0.79, -0.43, -0.43, 0.28, -1.26, -1.05
12953, 0.79, -0.42, -0.43, 0.63, -1.75, 0.21
12954, 0.79, -0.42, -0.43, 2.80, -0.63, 1.61
12955, 0.79, -0.43, -0.43, 3.64, -0.35, 3.01
12956, 0.79, -0.43, -0.43, 3.01, -0.70, 2.24
12957, 0.79, -0.43, -0.42, 1.61, -0.98, 1.89
12958, 0.79, -0.43, -0.43, 0.98, -0.91, 0.98
12959, 0.79, -0.43, -0.42, 0.28, -0.98, -0.21
12960, 0.79, -0.43, -0.43, 0.07, -1.40, 0.63
12961, 0.79, -0.43, -0.43, 0.49, -0.98, 0.98
12962, 0.79, -0.43, -0.43, 0.21, -0.98, -0.21
12963, 0.79, -0.44, -0.43, -0.70, -1.05, -0.14
12964, 0.79, -0.43, -0.43, 0.63, -0.35, 0.49
12965, 0.79, -0.43, -0.42, 0.91, -0.28, 0.56
12966, 0.79, -0.43, -0.43, 0.56, -0.91, 1.12
12967, 0.79, -0.43, -0.42, 0.42, -0.84, 0.14
12968, 0.79, -0.43, -0.43, 1.54, -0.98, -1.40
12969, 0.79, -0.43, -0.43, 0.42, -0.28, -2.17
12970, 0.79, -0.43, -0.43, -0.42, 0.00, -1.26
12971, 0.79, -0.43, -0.43, 0.00, -0.77, -0.98
12972, 0.79, -0.43, -0.42, -0.84, -0.70, -1.19
12973, 0.79, -0.43, -0.42, -0.91, -1.12, -0.98
12974, 0.80, -0.42, -0.42, -0.42, -0.98, -0.42
12975, 0.80, -0.43, -0.42, -0.07, -0.98, -0.28
12976, 0.79, -0.43, -0.42, -1.47, -1.19, -1.19
12977, 0.80, -0.43, -0.42, -2.17, -1.33, -1.05
12978, 0.79, -0.43, -0.43, -1.40, -1.82, -0.07
12979, 0.79, -0.43, -0.43, -1.26, -2.24, 1.05
12980, 0.80, -0.42, -0.43, -0.91, -2.31, 1.33
12981, 0.79, -0.42, -0.43, -0.49, -1.89, 1.40
12982, 0.79, -0.43, -0.43, -0.56, -2.17, 2.17
12983, 0.79, -0.43, -0.43, 0.21, -2.17, 1.19
12984, 0.79, -0.43, -0.43, -0.14, -1.82, -0.98
12985, 0.79, -0.42, -0.43, -0.07, -1.12, -0.70
12986, 0.79, -0.42, -0.43, 0.98, -0.28, 0.77
12987, 0.80, -0.42, -0.43, 3.29, -0.21, 3.71
12988, 0.79, -0.43, -0.43, 2.45, -1.26, 3.57
12989, 0.79, -0.43, -0.43, 1.89, -1.75, 2.59
12990, 0.79, -0.43, -0.42, 0.84, -1.19, 1.26
12991, 0.79, -0.43, -0.43, 0.21, -0.77, -0.07
12992, 0.79, -0.43, -0.43, 0.14, -0.91, 0.00
12993, 0.79, -0.43, -0.43, 0.07, -1.47, 0.63
12994, 0.79, -0.43, -0.43, 0.14, -1.33, 0.35
12995, 0.79, -0.43, -0.43, 0.56, -0.98, 0.70
12996, 0.79, -0.43, -0.43, 0.63, -0.98, 1.26
12997, 0.79, -0.43, -0.43, 0.42, -1.40, 1.40
12998, 0.79, -0.43, -0.43, 0.42, -1.89, -0.07
12999, 0.79, -0.43, -0.43, 0.42, -0.77, -1.26
13000, 0.79, -0.43, -0.43, 0.49, 0.00, -1.26
13001, 0.79, -0.43, -0.43, -0.49, -0.91, -1.47
13002, 0.79, -0.43, -0.43, -0.91, -0.42, -1.75
13003, 0.79, -0.43, -0.43, -1.05, -0.70, -1.61
13004, 0.79, -0.43, -0.43, -0.42, -1.05, -1.05
13005, 0.79, -0.43, -0.43, -0.63, -1.19, -0.84
13006, 0.79, -0.42, -0.43, -0.42, -1.26, -0.35
13007, 0.79, -0.43, -0.43, -0.35, -2.17, -0.35
13008, 0.80, -0.42, -0.43, -1.40, -2.31, 0.28
13009, 0.80, -0.42, -0.43, -1.75, -2.80, 1.05
13010, 0.80, -0.42, -0.43, -1.05, -2.73, 1.82
13011, 0.79, -0.42, -0.43, -0.28, -1.68, 2.52
13012, 0.79, -0.43, -0.43, -0.21, -1.61, 2.10
13013, 0.79, -0.43, -0.43, -0.14, -2.31, 0.98
13014, 0.79, -0.43, -0.43, -0.14, -1.75, -1.19
13015, 0.79, -0.42, -0.43, -0.70, -1.96, -0.49
13016, 0.79, -0.42, -0.43, 0.56, -1.26, 1.26
13017, 0.79, -0.42, -0.43, 2.10, -0.70, 3.85
13018, 0.79, -0.43, -0.43, 2.87, -0.28, 3.71
13019, 0.79, -0.43, -0.43, 1.75, -0.28, 1.05
13020, 0.79, -0.43, -0.43, 1.19, -0.70, -0.28
13021, 0.79, -0.43, -0.43, 0.42, -0.35, -1.40
13022, 0.79, -0.43, -0.43, 0.35, -0.56, -0.84
13023, 0.79, -0.43, -0.43, 0.21, -0.84, -0.84
13024, 0.79, -0.43, -0.43, 0.42, -0.84, -0.21
13025, 0.79, -0.43, -0.43, 0.14, -1.12, -0.14
13026, 0.79, -0.42, -0.43, 0.00, -1.33, 0.35
13027, 0.79, -0.42, -0.43, 0.70, -0.63, 1.05
13028, 0.79, -0.43, -0.43, 1.61, -0.77, 1.82
13029, 0.79, -0.43, -0.43, 1.68, -1.19, 2.80
13030, 0.79, -0.43, -0.43, 0.28, -1.19, 0.42
13031, 0.79, -0.43, -0.43, 0.56, 0.07, -2.03
13032, 0.79, -0.43, -0.43, 0.21, 0.63, -2.38
13033, 0.79, -0.43, -0.42, -0.14, -0.14, -2.03
13034, 0.79, -0.43, -0.43, -0.42, -0.21, -1.75
13035, 0.79, -0.43, -0.43, -0.70, -0.56, -1.33
13036, 0.79, -0.42, -0.43, -0.63, -0.84, -0.77
13037, 0.80, -0.42, -0.43, -0.28, -1.12, -0.35
13038, 0.79, -0.42, -0.43, 17.85, -1.05, -0.98
13039, 0.80, -0.42, -0.43, -0.77, -1.05, -0.98
13040, 0.80, -0.43, -0.42, -1.89, -1.68, -0.77
13041, 0.79, -0.43, -0.43, -2.80, -2.24, -0.77
13042, 0.80, -0.42, -0.43, -2.45, -2.87, 0.56
13043, 0.80, -0.42, -0.43, -1.47, -3.01, 1.54
13044, 0.79, -0.42, -0.43, -0.49, -2.38, 2.38
13045, 0.79, -0.42, -0.43, 0.56, -0.56, 1.54
13046, 0.79, -0.42, -0.43, 0.35, -0.49, -0.56
13047, 0.80, -0.42, -0.43, 17.85, 0.00, -1.89
13048, 0.79, -0.42, -0.43, 0.84, -0.42, -0.63
13049, 0.80, -0.42, -0.43, 1.54, -1.12, 1.68
13050, 0.79, -0.42, -0.43, 1.75, -1.68, 2.66
13051, 0.79, -0.42, -0.43, 0.98, -1.40, 2.31
13052, 0.79, -0.43, -0.43, 0.70, -1.61, 1.82
13053, 0.79, -0.43, -0.43, 0.42, -1.61, 1.54
13054, 0.79, -0.42, -0.43, 0.07, -1.54, 0.70
13055, 0.79, -0.42, -0.43, 0.07, -1.05, 0.35
13056, 0.79, -0.42, -0.43, 0.07, -0.84, -0.70
13057, 0.79, -0.42, -0.43, 0.07, -1.05, -0.77
13058, 0.79, -0.42, -0.43, 1.33, -1.26, -0.14
13059, 0.79, -0.42, -0.43, 0.63, -0.70, 0.77
13060, 0.80, -0.42, -0.43, -0.49, -0.98, 1.26
13061, 0.79, -0.42, -0.43, 0.63, -1.40, 2.17
13062, 0.79, -0.43, -0.43, 1.26, -0.98, 1.82
13063, 0.79, -0.43, -0.43, 0.42, -1.26, 0.14
13064, 0.79, -0.43, -0.43, 0.35, -0.49, -1.33
13065, 0.79, -0.42, -0.43, 0.42, -0.49, -1.47
13066, 0.79, -0.42, -0.43, 0.00, -1.26, -0.56
13067, 0.79, -0.42, -0.43, -0.42, -1.40, -0.63
13068, 0.79, -0.42, -0.43, -0.84, -0.84, -1.19
13069, 0.80, -0.42, -0.43, -0.70, -1.05, -0.70
13070, 0.79, -0.42, -0.43, -0.70, -1.19, -0.91
13071, 0.80, -0.42, -0.43, -1.61, -1.33, -0.56
13072, 0.80, -0.42, -0.43, -1.40, -1.61, -0.28
13073, 0.80, -0.42, -0.43, -1.26, -2.73, -0.42
13074, 0.80, -0.42, -0.43, -2.73, -3.01, 0.77
13075, 0.79, -0.42, -0.44, -2.38, -3.29, 1.47
13076, 0.79, -0.42, -0.44, -0.63, -2.59, 2.80
13077, 0.79, -0.42, -0.43, -0.77, -1.89, 2.80
13078, 0.79, -0.42, -0.44, -0.21, -1.75, 1.54
13079, 0.79, -0.42, -0.44, 0.00, -0.77, -1.75
13080, 0.79, -0.42, -0.44, 0.21, -0.98, -1.89
13081, 0.80, -0.41, -0.44, 1.68, -0.49, 1.40
13082, 0.79, -0.42, -0.43, 3.36, -0.70, 5.11
13083, 0.79, -0.42, -0.43, 3.57, -1.82, 4.97
13084, 0.79, -0.43, -0.43, 1.19, -1.75, 2.03
13085, 0.79, -0.42, -0.44, 0.91, -0.56, -0.49
13086, 0.79, -0.43, -0.43, 0.49, -0.35, -1.12
13087, 0.79, -0.42, -0.43, 0.00, -0.84, -0.91
13088, 0.79, -0.42, -0.44, 0.28, -0.56, -0.63
13089, 0.79, -0.42, -0.43, 0.42, -0.49, -0.35
13090, 0.79, -0.42, -0.43, 0.49, -0.35, -0.77
13091, 0.79, -0.42, -0.44, 0.70, -0.77, 0.49
13092, 0.79, -0.42, -0.43, 0.70, -0.21, 2.17
13093, 0.79, -0.43, -0.43, 1.40, -1.40, 2.66
13094, 0.79, -0.43, -0.43, 0.35, -1.19, 0.07
13095, 0.79, -0.43, -0.43, 0.42, 0.14, -2.66
13096, 0.80, -0.42, -0.43, 0.49, -0.21, -1.75
13097, 0.79, -0.42, -0.43, 0.35, -0.70, -0.91
13098, 0.80, -0.42, -0.43, -0.70, -0.42, -0.91
13099, 0.79, -0.42, -0.43, -0.42, -0.70, -0.35
13100, 0.79, -0.42, -0.43, -0.14, -0.84, -0.14
13101, 0.79, -0.42, -0.43, -1.19, -0.91, -1.61
13102, 0.79, -0.42, -0.43, -1.33, -0.84, -2.59
13103, 0.80, -0.42, -0.43, -0.35, -2.24, -0.77
13104, 0.80, -0.42, -0.43, -0.91, -2.52, 0.84
13105, 0.80, -0.42, -0.44, -1.47, -1.61, 1.40
13106, 0.79, -0.42, -0.44, -0.35, -1.75, 1.19
13107, 0.79, -0.42, -0.44, -0.07, -1.75, 1.61
13108, 0.79, -0.42, -0.43, 0.00, -1.68, 1.19
13109, 0.79, -0.42, -0.44, 0.49, -0.42, -0.77
13110, 0.79, -0.42, -0.44, 1.54, 0.00, -1.82
13111, 0.79, -0.42, -0.43, 2.17, -0.35, -0.49
13112, 0.79, -0.42, -0.43, 1.89, -0.77, 1.40
13113, 0.79, -0.42, -0.43, 1.68, -0.84, 1.40
13114, 0.79, -0.42, -0.43, 1.26, -1.26, 1.68
13115, 0.79, -0.42, -0.43, 1.26, -1.82, 2.73
13116, 0.79, -0.43, -0.43, 0.42, -1.26, 1.26
13117, 0.79, -0.42, -0.43, 0.28, -0.98, 0.77
13118, 0.79, -0.42, -0.43, 1.33, -0.56, 0.49
13119, 0.79, -0.42, -0.43, 0.21, -0.56, -0.07
13120, 0.79, -0.42, -0.43, 0.35, -0.70, 0.07
13121, 0.79, -0.42, -0.43, 1.26, 0.21, 0.28
13122, 0.79, -0.42, -0.43, 0.63, -0.49, 0.28
13123, 0.79, -0.42, -0.43, 0.77, -0.77, 0.35
13124, 0.79, -0.42, -0.43, 0.56, -0.49, 0.00
13125, 0.80, -0.42, -0.43, 0.56, -0.77, -0.63
13126, 0.79, -0.42, -0.43, 0.49, -0.98, -0.98
13127, 0.79, -0.42, -0.43, -0.42, -0.70, -1.26
13128, 0.80, -0.42, -0.43, -1.05, -1.05, -1.68
13129, 0.79, -0.42, -0.43, -0.91, -1.05, -0.77
13130, 0.80, -0.42, -0.43, -1.12, -0.98, -1.05
13131, 0.80, -0.42, -0.43, -1.54, -1.19, -1.61
13132, 0.79, -0.42, -0.43, -1.47, -0.70, -2.24
13133, 0.80, -0.41, -0.43, -0.91, -0.56, -1.33
13134, 0.80, -0.41, -0.43, -1.33, -1.82, 0.14
13135, 0.80, -0.41, -0.43, -0.49, -1.19, 0.21
13136, 0.80, -0.41, -0.43, -0.56, -1.75, 0.07
13137, 0.80, -0.41, -0.43, -0.98, -1.89, 1.54
13138, 0.80, -0.41, -0.43, -0.21, -1.96, 2.59
13139, 0.79, -0.42, -0.43, 0.00, -1.40, 1.47
13140, 0.79, -0.41, -0.43, 0.00, -1.61, -0.49
13141, 0.80, -0.41, -0.43, 0.07, -1.54, -0.98
13142, 0.79, -0.41, -0.43, 0.14, -1.47, 0.77
