t,ax,ay,az,gx,gy,gz
1088, -0.45, -0.02, -0.86, 17.64, -8.05, -0.98
1089, -0.49, -0.19, -1.03, -0.21, -1.68, 19.18
1090, -0.46, -0.23, -0.94, -2.59, 24.22, 16.45
1091, -0.41, -0.19, -0.86, -8.19, 17.22, 16.52
1092, -0.36, -0.15, -0.85, -9.03, 3.57, 13.09
1093, -0.39, -0.14, -0.89, -12.32, -7.91, 10.78
1094, -0.40, -0.14, -0.92, -10.43, -4.27, 8.82
1095, -0.39, -0.13, -0.88, -4.27, 2.38, 4.13
1096, -0.39, -0.11, -0.86, -0.49, -1.19, 2.17
1097, -0.41, -0.12, -0.90, 2.17, -2.24, 5.60
1098, -0.41, -0.16, -0.90, 3.57, -4.41, 4.83
1099, -0.41, -0.19, -0.96, 7.49, 0.49, -12.25
1100, -0.34, -0.19, -0.89, 7.77, 6.09, -25.27
1101, -0.38, -0.12, -0.89, 8.19, -2.38, -28.56
1102, -0.40, -0.07, -0.90, 7.28, 3.99, -20.09
1103, -0.39, -0.07, -0.81, 13.44, 0.00, -3.85
1104, -0.47, -0.17, -0.97, -0.14, -18.76, 16.10
1105, -0.46, -0.23, -1.02, -9.66, 16.52, 25.41
1106, -0.42, -0.18, -0.88, -16.52, 16.80, 21.98
1107, -0.35, -0.13, -0.88, -16.94, 6.02, 14.84
1108, -0.37, -0.12, -0.89, -16.87, -1.54, 13.93
1109, -0.39, -0.10, -0.91, -16.38, -3.43, 15.33
1110, -0.41, -0.11, -0.93, -17.57, -0.35, 17.71
1111, -0.39, -0.12, -0.92, -13.44, 8.96, 15.96
1112, -0.25, -0.10, -0.89, -10.29, 8.19, 10.99
1113, -0.37, -0.10, -0.89, -5.74, 3.22, 5.18
1114, -0.39, -0.09, -0.91, 0.07, 0.77, 3.43
1115, -0.39, -0.10, -0.94, 3.64, 9.45, 2.31
1116, -0.36, -0.09, -0.89, 3.92, 2.73, -0.21
1117, -0.36, -0.09, -0.94, -3.57, -5.74, -3.85
1118, -0.41, -0.07, -0.98, -16.24, -6.09, 4.20
1119, -0.40, -0.09, -0.97, -20.58, 1.12, 12.88
1120, -0.38, -0.11, -0.95, -26.81, -1.89, 4.83
1121, -0.40, -0.05, -0.97, -37.66, -3.99, 11.48
1122, -0.39, -0.04, -0.94, -43.40, 1.26, 17.57
1123, -0.41, -0.00, -0.94, -56.35, 0.35, 25.97
1124, -0.42, 0.01, -0.97, -59.50, 5.25, 39.48
1125, -0.40, 0.00, -0.99, -61.32, 21.63, 38.22
1126, -0.35, 0.05, -0.93, -54.11, 33.32, 27.37
1127, -0.35, 0.10, -0.85, -44.10, 30.24, 22.82
1128, -0.30, 0.13, -0.85, -33.67, 15.96, 16.87
1129, -0.34, 0.17, -0.89, -25.62, 1.12, 11.97
1130, -0.33, 0.11, -0.94, -19.53, 7.21, 4.62
1131, -0.33, 0.12, -0.94, -14.21, 9.03, -1.26
1132, -0.29, 0.09, -0.90, -13.02, 2.59, -19.39
1133, -0.29, 0.12, -0.96, -21.63, -2.17, -27.51
1134, -0.33, 0.17, -1.02, -29.40, 14.00, -20.72
1135, -0.38, 0.21, -0.99, -31.43, 32.76, 13.02
1136, -0.38, 0.19, -0.95, -46.97, 18.06, 20.44
1137, -0.27, 0.11, -0.96, -41.30, 31.92, -0.35
1138, -0.27, 0.18, -0.96, -52.92, 31.43, -17.92
1139, -0.26, 0.26, -0.96, -58.24, 45.36, -11.55
1140, -0.28, 0.28, -0.93, -54.46, 50.47, -1.19
1141, -0.20, 0.25, -0.87, -47.25, 45.71, -3.29
1142, -0.15, 0.29, -0.75, -28.56, 26.81, -11.62
1143, -0.17, 0.33, -0.80, -27.79, -13.02, -27.16
1144, -0.24, 0.34, -1.01, -25.62, 16.73, -13.09
1145, -0.22, 0.38, -0.83, -18.76, 31.78, -10.29
1146, -0.18, 0.38, -0.81, -16.24, -10.22, -27.72
1147, -0.18, 0.33, -0.96, -9.80, 9.87, -39.20
1148, -0.14, 0.30, -0.90, -7.35, 13.93, -60.27
1149, -0.17, 0.31, -0.86, 1.05, 2.31, -65.24
1150, -0.20, 0.31, -0.84, 0.35, -6.16, -49.49
1151, -0.22, 0.31, -0.88, -4.69, -7.42, -25.06
1152, -0.28, 0.33, -0.91, -7.84, 0.35, -9.80
1153, -0.25, 0.35, -0.91, -9.24, 4.83, 9.59
1154, -0.21, 0.33, -0.88, -8.05, 6.79, 5.18
1155, -0.22, 0.35, -0.89, -5.67, -0.70, 2.24
1156, -0.23, 0.36, -0.94, -3.99, 3.99, 5.04
1157, -0.22, 0.34, -0.89, -3.43, 7.49, 3.57
1158, -0.20, 0.34, -0.87, -2.45, 0.28, 2.80
1159, -0.20, 0.35, -0.88, -1.68, -4.48, -2.66
1160, -0.22, 0.37, -0.92, -1.68, -2.59, 4.76
1161, -0.21, 0.34, -0.87, 0.70, 0.91, 0.56
1162, -0.21, 0.33, -0.89, 1.89, -5.25, 2.10
1163, -0.22, 0.34, -0.91, 3.71, -1.82, -1.40
1164, -0.22, 0.35, -0.90, 3.22, -2.24, -0.63
1165, -0.21, 0.34, -0.90, 2.38, -3.15, 1.12
1166, -0.22, 0.35, -0.90, 3.01, -2.17, 1.26
1167, -0.23, 0.34, -0.92, 3.01, -0.42, 3.15
1168, -0.22, 0.33, -0.91, 2.45, 0.98, 2.59
1169, -0.21, 0.35, -0.91, 3.43, 1.05, 1.47
1170, -0.21, 0.34, -0.90, 2.10, -1.12, 4.20
1171, -0.22, 0.35, -0.92, 1.82, 1.54, 3.43
1172, -0.21, 0.34, -0.91, 0.63, 2.52, 6.09
1173, -0.21, 0.34, -0.90, 0.14, 3.36, 8.61
1174, -0.21, 0.35, -0.92, -0.14, 2.31, 8.89
1175, -0.21, 0.35, -0.93, 0.42, 5.32, 11.69
1176, -0.18, 0.35, -0.91, 1.96, 8.26, 16.24
1177, -0.20, 0.35, -0.89, 0.63, 5.39, 16.17
1178, -0.19, 0.36, -0.90, 1.12, -1.26, 13.30
1179, -0.20, 0.35, -0.93, 0.28, -0.14, 11.90
1180, -0.18, 0.33, -0.91, -0.21, -0.14, 10.29
1181, -0.18, 0.33, -0.91, -2.03, -1.68, 5.88
1182, -0.16, 0.32, -0.91, -4.34, -4.20, 3.36
1183, -0.19, 0.35, -0.91, -1.54, -5.18, 2.52
1184, -0.20, 0.37, -0.89, 1.26, -2.10, 7.42
1185, -0.15, 0.33, -0.89, 2.03, -6.93, -0.70
1186, -0.21, 0.36, -0.95, 1.12, -1.75, 4.20
1187, -0.18, 0.33, -0.90, 2.10, 1.19, 2.24
1188, -0.18, 0.33, -0.91, 4.13, -3.29, 3.29
1189, -0.19, 0.32, -0.89, 3.43, 0.56, 0.84
1190, -0.17, 0.35, -0.87, 1.33, 0.77, 1.75
1191, -0.16, 0.35, -0.87, 1.61, -6.44, -2.31
1192, -0.18, 0.34, -0.92, -0.63, -7.14, -4.97
1193, -0.20, 0.35, -0.91, 2.03, -2.31, -2.03
1194, -0.19, 0.35, -0.90, 5.81, -4.97, -4.62
1195, -0.18, 0.34, -0.92, 4.76, -6.58, -4.41
1196, -0.19, 0.34, -0.91, 2.87, -3.29, -5.25
1197, -0.19, 0.34, -0.92, 1.96, -3.01, -2.24
1198, -0.20, 0.34, -0.92, 0.63, -2.38, -2.80
1199, -0.19, 0.34, -0.91, -0.49, -0.63, -3.57
1200, -0.20, 0.35, -0.91, 0.77, -1.96, -2.38
1201, -0.21, 0.35, -0.91, 0.56, 0.56, -1.19
1202, -0.20, 0.34, -0.91, 2.31, -0.07, -2.17
1203, -0.21, 0.33, -0.91, 2.52, 1.61, -3.71
1204, -0.20, 0.35, -0.90, 1.54, 0.63, -0.98
1205, -0.19, 0.35, -0.90, 2.03, 1.40, 0.21
1206, -0.19, 0.34, -0.90, 3.92, -2.87, -0.14
1207, -0.20, 0.33, -0.93, 3.78, -2.87, -1.54
1208, -0.20, 0.34, -0.91, 1.33, 1.12, -2.38
1209, -0.19, 0.33, -0.91, 3.15, -2.31, -1.19
1210, -0.20, 0.33, -0.92, 2.59, -1.61, -2.94
1211, -0.20, 0.34, -0.90, 3.36, -1.19, -1.33
1212, -0.19, 0.33, -0.90, 3.92, -1.75, -1.61
1213, -0.20, 0.34, -0.91, 4.90, -1.96, -1.33
1214, -0.19, 0.33, -0.92, 6.30, 0.07, -3.36
1215, -0.17, 0.31, -0.89, 11.90, -4.06, -5.04
1216, -0.18, 0.32, -0.89, 14.28, -7.28, -19.74
1217, -0.19, 0.29, -0.89, 22.12, -14.70, -24.15
1218, -0.21, 0.30, -0.89, 32.48, -14.07, -33.32
1219, -0.20, 0.30, -0.85, 46.62, -15.05, -27.58
1220, -0.19, 0.24, -0.82, 53.13, -26.88, -36.47
1221, -0.21, 0.21, -0.86, 70.91, -34.93, -51.94
1222, -0.33, 0.23, -0.99, 66.85, -30.73, -46.13
1223, -0.33, 0.16, -0.97, 57.89, -10.43, -37.52
1224, -0.28, 0.13, -0.90, 60.76, -5.18, -29.68
1225, -0.31, 0.13, -0.90, 61.11, -13.65, -36.40
1226, -0.27, 0.07, -0.96, 54.32, -10.43, -29.47
1227, -0.27, 0.10, -0.93, 65.52, -7.42, -25.69
1228, -0.35, 0.04, -0.97, 70.07, -5.81, -19.11
1229, -0.33, -0.09, -0.96, 58.10, 13.58, -21.21
1230, -0.26, 0.11, -0.86, 70.07, 19.88, -22.96
1231, -0.34, -0.01, -0.94, 61.11, -7.28, -7.77
1232, -0.32, -0.06, -0.96, 56.49, -2.59, 0.98
1233, -0.28, -0.08, -0.94, 54.04, -5.53, 5.32
1234, -0.32, -0.14, -0.94, 51.94, -10.99, 1.05
1235, -0.37, -0.14, -0.98, 43.82, -15.54, 9.94
1236, -0.33, -0.19, -0.98, 36.19, -5.74, 12.11
1237, -0.30, -0.22, -0.94, 32.06, 6.09, 1.61
1238, -0.33, -0.19, -0.93, 33.11, 1.54, 6.86
1239, -0.32, -0.15, -0.97, 27.86, 7.28, 8.26
1240, -0.30, -0.17, -0.93, 27.86, 9.10, 16.24
1241, -0.34, -0.23, -0.95, 32.13, 7.42, 13.37
1242, -0.32, -0.21, -0.96, 31.57, 12.04, 16.45
1243, -0.34, -0.21, -0.96, 26.11, 13.72, 16.94
1244, -0.29, -0.22, -0.91, 22.96, 17.78, 15.96
1245, -0.27, -0.25, -0.83, 33.53, 13.37, 3.99
1246, -0.28, -0.24, -0.88, 40.60, 0.56, 9.03
1247, -0.33, -0.32, -0.96, 27.93, -6.72, 13.58
1248, -0.31, -0.33, -1.00, 19.18, 8.47, 9.45
1249, -0.24, -0.33, -0.91, 17.64, 12.53, 0.56
1250, -0.26, -0.30, -0.92, 13.09, 0.21, -0.56
1251, -0.27, -0.29, -0.94, 7.07, 0.77, -2.10
1252, -0.27, -0.29, -0.87, 10.92, 2.03, -8.12
1253, -0.26, -0.29, -0.89, 13.02, -7.49, -5.95
1254, -0.27, -0.30, -0.89, 17.64, -0.21, -7.49
1255, -0.31, -0.31, -0.93, 6.09, -10.78, 1.54
1256, -0.29, -0.33, -0.93, 3.36, 2.17, -0.70
1257, -0.26, -0.33, -0.87, 6.79, -4.20, -3.71
1258, -0.28, -0.33, -0.94, 1.47, -8.33, -3.71
1259, -0.28, -0.34, -0.93, 0.98, 5.46, -0.35
1260, -0.27, -0.33, -0.92, -1.75, 1.05, -2.66
1261, -0.25, -0.30, -0.89, -1.47, 2.45, -6.58
1262, -0.28, -0.30, -0.89, 3.15, 3.43, -6.09
1263, -0.26, -0.33, -0.88, 4.55, -2.10, -8.89
1264, -0.28, -0.33, -0.90, 0.49, -8.89, -9.17
1265, -0.28, -0.30, -0.90, 14.42, 8.96, -11.13
1266, -0.24, -0.29, -0.86, 18.90, 4.27, -10.71
1267, -0.27, -0.32, -0.89, 17.15, -1.96, -9.17
1268, -0.28, -0.38, -0.92, 6.79, -5.18, -6.02
1269, -0.27, -0.36, -0.91, 10.92, 8.96, -3.85
1270, -0.27, -0.33, -0.85, 10.36, -0.98, 0.84
1271, -0.27, -0.36, -0.96, 10.99, 3.85, 2.17
1272, -0.25, -0.38, -0.90, 10.99, 13.23, -0.70
1273, -0.26, -0.35, -0.84, 11.69, 3.85, 5.11
1274, -0.26, -0.35, -0.87, 7.98, -12.39, 7.14
1275, -0.27, -0.36, -0.94, 3.78, -8.12, 4.48
1276, -0.27, -0.36, -0.92, 1.05, -3.01, 5.67
1277, -0.37, -0.34, -0.82, 14.07, 8.19, 0.35
1278, -0.23, -0.34, -0.77, 20.65, -15.19, 4.83
1279, -0.34, -0.34, -0.96, 5.11, -24.71, 16.59
1280, -0.28, -0.39, -0.90, 6.30, 9.80, 12.32
1281, -0.21, -0.40, -0.81, 18.06, 4.41, -2.80
1282, -0.26, -0.37, -0.87, 14.28, -10.08, -4.20
1283, -0.25, -0.40, -0.86, 11.62, 5.60, 3.85
1284, -0.27, -0.45, -0.85, 11.83, 3.15, 3.29
1285, -0.26, -0.47, -0.88, 16.59, 8.54, -2.10
1286, -0.28, -0.42, -0.85, 13.23, 2.17, -2.94
1287, -0.28, -0.44, -0.92, 3.08, -4.69, -4.76
1288, -0.24, -0.41, -0.89, 9.66, 6.30, -11.20
1289, -0.29, -0.36, -0.83, 9.45, -0.56, 2.66
1290, -0.28, -0.40, -0.88, -2.94, -16.38, 8.89
1291, -0.29, -0.41, -0.87, -6.30, -1.96, 10.92
1292, -0.26, -0.40, -0.86, -6.23, -5.53, 7.00
1293, -0.28, -0.39, -0.85, -1.47, 3.92, 2.73
1294, -0.21, -0.37, -0.80, 1.40, 0.21, 5.95
1295, -0.30, -0.40, -0.85, -6.93, -12.25, 11.48
1296, -0.25, -0.37, -0.84, -1.89, 4.27, 5.46
1297, -0.18, -0.33, -0.73, 0.56, 3.71, 6.44
1298, -0.32, -0.41, -0.76, -2.17, -21.84, 13.51
1299, -0.29, -0.45, -0.84, 6.02, -7.91, 3.36
1300, -0.36, -0.41, -0.97, -6.16, -14.56, 1.54
1301, -0.34, -0.40, -1.04, -7.14, -8.12, -10.78
1302, -0.26, -0.53, -1.00, 0.07, 26.11, -12.46
1303, -0.25, -0.41, -0.71, 1.89, -7.35, -5.11
1304, -0.35, -0.38, -0.94, -18.62, -57.26, 14.35
1305, -0.39, -0.42, -1.07, -47.88, -46.34, 22.54
1306, -0.37, -0.38, -0.99, -59.92, -19.53, 29.89
1307, -0.33, -0.29, -0.87, -54.32, -2.66, 23.24
1308, -0.28, -0.19, -0.80, -46.41, -4.97, 22.82
1309, -0.32, -0.22, -0.82, -40.11, -21.63, 24.78
1310, -0.38, -0.27, -0.89, -34.37, -21.21, 23.66
1311, -0.39, -0.29, -0.92, -31.57, -11.20, 19.04
1312, -0.35, -0.27, -0.90, -25.97, 2.59, 13.51
1313, -0.34, -0.23, -0.86, -25.13, -1.05, 10.43
1314, -0.41, -0.23, -0.89, -17.92, -6.23, 8.61
1315, -0.38, -0.22, -0.89, -12.18, -4.34, 5.11
1316, -0.38, -0.19, -0.90, -0.14, 2.38, 3.78
1317, -0.35, -0.18, -0.87, 7.56, 2.80, 0.07
1318, -0.35, -0.20, -0.86, 19.81, -1.33, -8.05
1319, -0.37, -0.21, -0.89, 39.83, 6.16, -15.82
1320, -0.43, -0.22, -0.96, 44.94, 6.86, -19.11
1321, -0.37, -0.22, -0.98, 24.64, 18.34, -8.96
1322, -0.29, -0.27, -0.78, 25.27, 17.57, -6.02
1323, -0.38, -0.32, -0.94, 11.06, -22.54, 1.33
1324, -0.39, -0.39, -0.99, -7.84, 9.73, 4.48
1325, -0.33, -0.32, -0.84, -12.81, 14.49, 2.59
1326, -0.34, -0.25, -0.84, -12.46, -8.26, -1.33
1327, -0.36, -0.23, -0.92, -9.66, -5.39, 3.64
1328, -0.37, -0.24, -0.89, -6.58, 0.42, 4.41
1329, -0.37, -0.24, -0.89, -6.58, -1.68, 9.80
1330, -0.37, -0.28, -0.89, -7.70, 0.35, 9.94
1331, -0.36, -0.28, -0.89, -8.12, -1.26, 5.04
1332, -0.35, -0.25, -0.88, -7.84, -0.98, 4.48
1333, -0.36, -0.25, -0.88, -6.37, -4.90, 2.87
1334, -0.35, -0.25, -0.91, -4.90, -3.92, 1.33
1335, -0.36, -0.24, -0.90, -1.89, -1.12, 1.82
1336, -0.37, -0.24, -0.93, -1.05, -2.80, 1.19
1337, -0.35, -0.27, -0.90, -0.77, 2.66, -7.49
1338, -0.33, -0.23, -0.86, 1.54, -4.83, -12.18
1339, -0.36, -0.23, -0.89, 4.62, -8.40, -12.53
1340, -0.37, -0.23, -0.92, 0.84, -12.60, -6.37
1341, -0.38, -0.25, -0.99, -2.24, 1.61, -3.85
1342, -0.35, -0.24, -0.90, -8.12, 10.29, -1.12
1343, -0.35, -0.25, -0.88, -6.16, 7.63, -1.68
1344, -0.35, -0.22, -0.88, 0.35, 7.07, -2.38
1345, -0.37, -0.20, -0.90, 3.01, 8.68, 3.36
1346, -0.32, -0.21, -0.87, 9.24, 10.29, 0.21
1347, -0.35, -0.24, -0.93, 5.04, -3.08, 4.97
1348, -0.35, -0.27, -0.91, 0.63, 6.58, 3.50
1349, -0.34, -0.27, -0.90, -3.71, 0.70, 4.34
1350, -0.33, -0.28, -0.88, -5.04, 5.04, 3.64
1351, -0.33, -0.25, -0.88, -4.27, -4.97, 1.12
1352, -0.33, -0.23, -0.93, -5.60, -2.73, 0.84
1353, -0.33, -0.21, -0.89, -4.20, -1.05, -2.73
1354, -0.33, -0.24, -0.90, -0.56, -6.65, -2.59
1355, -0.33, -0.28, -0.93, -0.49, -2.59, -10.99
1356, -0.33, -0.25, -0.90, 1.05, 1.33, -15.82
1357, -0.31, -0.28, -0.89, -8.05, -14.00, -18.34
1358, -0.33, -0.27, -0.92, -6.93, -5.53, -29.47
1359, -0.31, -0.22, -0.86, -3.08, -2.31, -31.08
1360, -0.35, -0.19, -0.91, -4.34, -13.44, -20.23
1361, -0.36, -0.18, -0.90, 6.02, 10.92, -12.39
1362, -0.31, -0.18, -0.84, 0.77, -11.76, -4.20
1363, -0.40, -0.27, -1.03, -5.32, -6.37, 6.16
1364, -0.34, -0.24, -0.88, 4.62, 24.08, 1.05
1365, -0.33, -0.21, -0.88, 6.37, -2.52, 3.85
1366, -0.36, -0.25, -0.97, 4.90, 12.46, 6.51
1367, -0.32, -0.24, -0.87, 7.42, 16.17, 6.65
1368, -0.31, -0.26, -0.89, 4.06, 3.01, 4.62
1369, -0.31, -0.26, -0.90, 2.45, 2.38, 5.53
1370, -0.31, -0.27, -0.90, -2.80, -6.79, 5.04
1371, -0.32, -0.27, -0.91, -3.71, -5.88, 1.82
1372, -0.31, -0.24, -0.90, -5.53, -7.28, 3.92
1373, -0.33, -0.26, -0.92, -4.62, -5.18, 1.05
1374, -0.31, -0.27, -0.89, 2.03, -1.33, -9.52
1375, -0.27, -0.32, -0.97, -1.82, -9.52, -30.10
1376, -0.30, -0.26, -0.91, 6.72, 17.64, -45.78
1377, -0.25, -0.20, -0.78, 12.67, -4.76, -42.77
1378, -0.36, -0.18, -0.89, 12.67, -22.40, -21.77
1379, -0.42, -0.20, -0.99, 8.05, -6.58, 4.13
1380, -0.39, -0.31, -1.01, -5.67, 6.79, 17.71
1381, -0.34, -0.29, -0.92, -7.21, 19.81, 9.17
1382, -0.31, -0.23, -0.87, -2.17, 14.49, 11.90
1383, -0.30, -0.24, -0.90, -4.06, 1.47, 10.85
1384, -0.32, -0.26, -0.93, -4.06, 12.11, 7.98
1385, -0.29, -0.24, -0.89, -0.70, 7.77, 9.31
1386, -0.30, -0.27, -0.92, -2.17, 4.34, 10.36
1387, -0.28, -0.29, -0.90, -2.66, 5.32, 3.92
1388, -0.28, -0.25, -0.87, -0.84, -1.47, 2.52
1389, -0.30, -0.21, -0.90, -2.73, -11.27, 5.95
1390, -0.32, -0.24, -0.96, -9.59, -11.13, 10.64
1391, -0.33, -0.25, -0.95, -16.59, -3.92, 13.30
1392, -0.32, -0.25, -0.93, -16.10, 1.26, 10.43
1393, -0.30, -0.21, -0.91, -12.74, 2.94, 9.73
1394, -0.31, -0.19, -0.92, -12.67, 0.49, 15.12
1395, -0.30, -0.20, -0.94, -11.20, 8.82, 14.56
1396, -0.30, -0.22, -0.89, 0.98, 8.40, 4.27
1397, -0.29, -0.14, -0.86, 10.78, 7.21, 8.19
1398, -0.32, -0.20, -0.90, 12.95, -8.05, 5.74
1399, -0.34, -0.23, -0.97, 9.03, 0.84, 8.89
1400, -0.32, -0.25, -0.93, 2.73, 4.13, 8.61
1401, -0.31, -0.23, -0.91, -1.68, 1.12, 7.21
1402, -0.29, -0.23, -0.93, -6.02, -2.80, 7.63
1403, -0.29, -0.21, -0.90, -7.77, -3.01, 8.05
1404, -0.30, -0.21, -0.92, -7.00, -10.71, 5.74
1405, -0.31, -0.21, -0.93, -4.48, -3.29, 6.44
1406, -0.30, -0.20, -0.92, -2.73, -2.59, 2.52
1407, -0.30, -0.20, -0.92, -1.82, -0.84, 2.38
1408, -0.31, -0.17, -0.92, 0.63, 0.98, 1.89
1409, -0.30, -0.16, -0.92, -0.42, -3.71, 5.32
1410, -0.32, -0.18, -0.94, -1.40, -2.10, 6.72
1411, -0.32, -0.20, -0.92, -3.43, -0.14, 6.44
1412, -0.32, -0.18, -0.90, -4.55, -6.58, 11.27
1413, -0.32, -0.17, -0.95, -9.52, -12.67, 15.68
1414, -0.35, -0.16, -0.98, -17.64, -8.89, 21.98
1415, -0.35, -0.16, -0.96, -26.88, -6.23, 25.34
1416, -0.35, -0.14, -0.95, -28.98, -2.38, 27.09
1417, -0.33, -0.14, -0.93, -30.73, 1.89, 25.97
1418, -0.33, -0.12, -0.93, -28.91, 4.41, 23.73
1419, -0.32, -0.11, -0.91, -20.79, 8.61, 18.62
1420, -0.32, -0.10, -0.88, -5.88, 11.83, 15.82
1421, -0.30, -0.08, -0.87, 6.02, 3.92, 7.63
1422, -0.31, -0.08, -0.94, 17.57, 4.41, 5.60
1423, -0.35, -0.08, -0.94, 26.11, 18.90, 11.90
1424, -0.32, -0.08, -0.91, 26.25, 19.25, 15.05
1425, -0.27, -0.13, -0.90, 22.33, 3.50, 10.22
1426, -0.30, -0.18, -0.95, 14.35, -3.22, 0.91
1427, -0.28, -0.20, -0.91, 8.96, -4.62, -7.70
1428, -0.30, -0.19, -0.93, -5.25, -22.40, -8.40
1429, -0.33, -0.17, -0.98, -10.08, -12.74, -6.09
1430, -0.31, -0.14, -0.94, -10.92, -7.56, -6.09
1431, -0.33, -0.08, -0.94, -11.06, -10.71, -2.03
1432, -0.32, -0.11, -0.93, -10.50, -5.88, -0.42
1433, -0.31, -0.11, -0.94, -12.25, -4.55, 0.42
1434, -0.33, -0.11, -0.95, -11.69, -2.45, 4.48
1435, -0.32, -0.12, -0.91, -8.75, -0.42, -0.49
1436, -0.31, -0.10, -0.91, -7.28, -7.42, -2.59
1437, -0.33, -0.09, -0.94, -5.25, -6.72, 0.49
1438, -0.33, -0.11, -0.94, -5.39, -5.60, 0.91
1439, -0.33, -0.09, -0.93, -3.36, -1.47, 0.77
1440, -0.33, -0.09, -0.92, -2.17, -5.81, 4.13
1441, -0.33, -0.10, -0.94, -2.52, -4.97, 3.57
1442, -0.32, -0.10, -0.91, -2.24, -5.18, -2.03
1443, -0.33, -0.10, -0.92, -0.35, -9.59, -2.31
1444, -0.34, -0.10, -0.92, 0.56, -9.94, -4.06
1445, -0.34, -0.10, -0.94, -1.19, -9.17, -7.84
1446, -0.35, -0.07, -0.96, 0.49, -3.64, -5.04
1447, -0.34, -0.09, -0.91, 1.82, -2.80, -4.34
1448, -0.34, -0.09, -0.90, 3.85, -6.79, -5.60
1449, -0.36, -0.10, -0.94, 7.49, -9.31, -7.91
1450, -0.38, -0.10, -0.95, 3.78, 3.08, -8.12
1451, -0.33, -0.08, -0.88, 9.94, -0.63, -11.62
1452, -0.32, -0.08, -0.90, 16.87, -3.85, -15.26
1453, -0.35, -0.10, -0.92, 14.63, -5.32, -6.93
1454, -0.37, -0.16, -0.95, 11.55, -1.40, -9.80
1455, -0.36, -0.15, -0.93, 7.91, 3.71, -14.70
1456, -0.35, -0.13, -0.94, 6.16, 7.07, -16.45
1457, -0.32, -0.17, -0.91, 7.00, 8.33, -21.49
1458, -0.33, -0.15, -0.92, 14.35, 13.51, -35.98
1459, -0.29, -0.12, -0.85, 26.74, 12.25, -39.83
1460, -0.32, -0.14, -0.88, 32.48, 2.45, -25.62
1461, -0.37, -0.15, -0.95, 37.94, 8.26, -18.97
1462, -0.34, -0.18, -0.95, 33.74, 13.09, -11.48
1463, -0.34, -0.20, -0.95, 29.68, 13.16, -6.65
1464, -0.32, -0.24, -0.93, 22.89, 15.61, -0.77
1465, -0.30, -0.26, -0.88, 21.56, 10.15, -4.97
1466, -0.32, -0.23, -0.91, 20.37, 5.18, 4.76
1467, -0.31, -0.26, -0.90, 20.02, -0.07, 10.71
1468, -0.33, -0.27, -0.98, 11.69, -5.25, 7.07
1469, -0.28, -0.29, -0.91, 12.53, 4.55, 2.45
1470, -0.30, -0.30, -0.91, 8.82, -9.73, 0.70
1471, -0.28, -0.29, -0.92, 5.60, -8.47, -2.24
1472, -0.30, -0.27, -0.93, -0.14, -10.08, -3.43
1473, -0.32, -0.26, -0.91, 1.75, 1.26, 1.40
1474, -0.28, -0.25, -0.85, 7.63, -3.57, -1.61
1475, -0.31, -0.27, -0.92, 7.98, -11.41, 0.21
1476, -0.30, -0.27, -0.93, 7.84, -4.76, -1.05
1477, -0.31, -0.29, -0.88, 10.15, -3.71, -6.44
1478, -0.31, -0.29, -0.90, 13.23, -10.99, -4.41
1479, -0.32, -0.30, -0.92, 11.06, -7.70, -7.14
1480, -0.30, -0.31, -0.90, 6.79, -5.46, -8.89
1481, -0.31, -0.28, -0.87, 11.34, -8.12, -7.14
1482, -0.33, -0.30, -0.91, 8.54, -9.87, -3.15
1483, -0.34, -0.32, -0.91, 9.73, -3.57, 1.96
1484, -0.33, -0.30, -0.91, 9.10, 1.12, 0.77
1485, -0.31, -0.32, -0.88, 6.37, -0.21, -3.15
1486, -0.30, -0.34, -0.86, 4.69, -5.25, -9.10
1487, -0.34, -0.32, -0.87, 2.59, -14.35, -3.99
1488, -0.33, -0.30, -0.93, -0.70, -7.84, -7.07
1489, -0.30, -0.26, -0.80, 16.10, 1.61, -4.06
1490, -0.34, -0.35, -0.93, 14.00, -17.22, -0.28
1491, -0.34, -0.33, -0.96, 6.72, 6.72, 0.14
1492, -0.31, -0.36, -0.86, 4.13, 16.10, -0.84
1493, -0.30, -0.35, -0.84, 0.35, -4.34, 1.05
1494, -0.34, -0.33, -0.90, 1.61, 0.21, 3.92
1495, -0.31, -0.34, -1.00, 3.78, 2.24, -1.19
1496, -0.32, -0.32, -0.90, 8.47, 3.64, -2.52
1497, -0.30, -0.33, -0.86, 16.80, 12.32, -5.32
1498, -0.31, -0.36, -0.87, 18.69, 6.79, -6.79
1499, -0.28, -0.34, -0.77, 22.47, 5.88, -5.32
1500, -0.34, -0.40, -0.88, 5.11, -46.90, 4.69
1501, -0.38, -0.38, -1.00, -10.71, -16.45, 6.93
1502, -0.33, -0.34, -0.87, -4.90, 6.51, 11.06
1503, -0.32, -0.35, -0.87, -1.19, -6.44, 10.92
1504, -0.30, -0.35, -0.87, 12.32, 2.80, -8.26
1505, -0.29, -0.32, -0.80, 23.38, -1.47, -2.03
1506, -0.32, -0.38, -0.84, 19.18, -11.06, -1.82
1507, -0.33, -0.38, -0.87, 15.96, -1.82, -1.54
1508, -0.33, -0.37, -0.91, 3.50, -1.68, -3.01
1509, -0.34, -0.37, -0.91, 2.94, 13.65, -2.45
1510, -0.32, -0.42, -0.86, 3.92, 11.55, -1.82
1511, -0.32, -0.39, -0.87, 8.89, 11.20, -4.27
1512, -0.31, -0.38, -0.84, 16.31, 9.80, -4.55
1513, -0.28, -0.38, -0.77, 14.00, -6.02, -6.51
1514, -0.32, -0.38, -0.85, 6.51, -34.02, -2.03
1515, -0.37, -0.40, -0.99, -11.90, -25.55, 9.94
1516, -0.36, -0.39, -0.92, -18.76, 1.33, 8.26
1517, -0.29, -0.36, -0.82, -1.89, 13.93, -0.70
1518, -0.30, -0.35, -0.83, 17.29, 8.75, -9.17
1519, -0.28, -0.42, -0.83, 21.49, 14.70, -9.31
1520, -0.29, -0.44, -0.82, 7.70, 1.75, -5.18
1521, -0.29, -0.45, -0.88, 1.05, 6.23, -7.35
1522, -0.34, -0.41, -0.87, -9.94, 4.41, -6.44
1523, -0.27, -0.39, -0.85, -4.90, 4.41, -6.79
1524, -0.30, -0.36, -0.85, 5.88, 5.67, -9.31
1525, -0.33, -0.39, -0.89, 12.53, 8.40, -7.35
1526, -0.30, -0.39, -0.89, 12.25, 19.88, -2.38
1527, -0.29, -0.39, -0.75, 9.73, 3.15, 1.47
1528, -0.32, -0.47, -0.91, -7.98, -41.02, 7.28
1529, -0.37, -0.44, -0.96, -19.67, -12.81, 7.84
1530, -0.28, -0.37, -0.83, -5.67, 5.81, 0.56
1531, -0.31, -0.33, -0.87, -4.55, -11.06, 8.89
1532, -0.30, -0.39, -0.91, -2.31, 7.21, 3.71
1533, -0.24, -0.38, -0.78, 10.22, 13.58, -5.11
1534, -0.29, -0.39, -0.82, 10.50, -5.60, 0.42
1535, -0.31, -0.41, -0.86, -1.68, -2.10, 4.90
1536, -0.30, -0.44, -0.80, -2.17, 2.94, -3.36
1537, -0.26, -0.39, -0.83, 8.26, 0.49, -7.49
1538, -0.24, -0.34, -0.81, 20.44, 12.32, -9.24
1539, -0.31, -0.45, -0.82, 15.96, -2.73, -6.65
1540, -0.33, -0.50, -0.97, 14.14, -9.73, -7.21
1541, -0.35, -0.48, -0.92, 10.15, 19.39, -4.83
1542, -0.28, -0.42, -0.84, -1.19, -5.53, 7.63
1543, -0.33, -0.46, -0.88, -13.02, -24.50, 7.91
1544, -0.32, -0.47, -0.92, -22.61, -26.11, 9.94
1545, -0.33, -0.40, -0.90, -29.54, -16.94, 5.88
1546, -0.29, -0.33, -0.86, -14.35, -6.93, 2.45
1547, -0.30, -0.33, -0.83, 1.26, -2.73, 3.57
1548, -0.25, -0.35, -0.81, 11.83, 4.55, -7.49
1549, -0.30, -0.40, -0.89, 8.40, -6.23, -0.42
1550, -0.31, -0.39, -0.89, -1.33, 12.32, 5.95
1551, -0.31, -0.40, -0.81, -6.93, 19.32, -2.10
1552, -0.27, -0.40, -0.80, -10.22, -0.91, -2.80
1553, -0.25, -0.34, -0.85, 3.64, 11.34, -3.92
1554, -0.30, -0.39, -0.82, 11.06, 18.06, 0.77
1555, -0.31, -0.47, -0.84, 5.60, -0.98, 1.12
1556, -0.33, -0.48, -0.92, -0.21, -4.34, -6.79
1557, -0.30, -0.46, -0.98, 1.33, 5.25, -16.80
1558, -0.32, -0.35, -0.88, 12.88, 28.42, -12.32
1559, -0.29, -0.40, -0.86, -4.13, -2.52, -4.83
1560, -0.27, -0.38, -0.80, -3.78, -3.57, -23.87
1561, -0.27, -0.41, -0.88, -7.49, -55.65, 2.87
1562, -0.38, -0.49, -1.04, -31.22, -31.85, 16.24
1563, -0.33, -0.41, -0.88, -37.73, 5.25, 6.23
1564, -0.13, -0.28, -0.74, -20.86, 0.91, -3.22
1565, -0.27, -0.26, -0.82, -3.29, -23.03, 1.47
1566, -0.34, -0.35, -0.94, -3.36, -7.63, 7.56
1567, -0.27, -0.41, -0.83, 3.15, 13.51, -2.10
1568, -0.29, -0.42, -0.82, 5.60, 0.63, -4.83
1569, -0.30, -0.39, -0.89, 0.98, -7.07, -0.70
1570, -0.33, -0.37, -0.93, -11.41, 0.28, 5.25
1571, -0.31, -0.39, -0.85, -11.34, 5.11, -1.47
1572, -0.29, -0.35, -0.88, -3.64, -4.27, -8.61
1573, -0.28, -0.35, -0.89, 10.43, 4.48, -21.21
1574, -0.27, -0.31, -0.90, 18.20, 21.84, -15.75
1575, -0.21, -0.31, -0.84, 26.67, 32.83, -7.98
1576, -0.32, -0.39, -0.79, 27.09, 20.58, -8.96
1577, -0.27, -0.43, -0.89, 15.89, -2.94, -8.68
1578, -0.28, -0.40, -0.90, 19.18, 26.81, -2.45
1579, -0.36, -0.40, -0.85, 14.70, 11.06, -4.55
1580, -0.19, -0.43, -0.90, 6.16, 0.14, 0.91
1581, -0.33, -0.38, -0.81, -7.70, -4.34, 11.97
1582, -0.30, -0.46, -0.89, -21.91, -59.15, 33.67
1583, -0.40, -0.50, -1.07, -51.94, -41.44, 32.06
1584, -0.33, -0.43, -1.02, -64.96, -10.57, 29.12
1585, -0.27, -0.33, -0.85, -52.15, 9.73, 15.68
1586, -0.27, -0.23, -0.75, -40.81, -11.27, 13.23
1587, -0.29, -0.21, -0.81, -30.17, -33.04, 15.47
1588, -0.34, -0.26, -0.91, -18.13, -22.19, 18.76
1589, -0.36, -0.27, -0.90, -13.58, -13.93, 19.60
1590, -0.37, -0.28, -0.90, -15.68, -14.56, 21.14
1591, -0.34, -0.28, -0.88, -16.10, -5.60, 16.38
1592, -0.33, -0.27, -0.88, -13.86, -4.48, 14.00
1593, -0.34, -0.24, -0.87, -9.24, -7.35, 12.81
1594, -0.37, -0.24, -0.92, -8.12, -7.84, 14.56
1595, -0.37, -0.24, -0.93, -9.17, -0.42, 13.23
1596, -0.36, -0.24, -0.90, -4.76, 7.35, 11.69
1597, -0.36, -0.24, -0.87, 0.21, 1.61, 10.78
1598, -0.37, -0.25, -0.88, 5.74, 2.52, 3.71
1599, -0.35, -0.22, -0.86, 20.30, 3.15, -3.43
1600, -0.37, -0.21, -0.89, 29.26, 1.82, -4.48
1601, -0.37, -0.21, -0.92, 35.07, 9.31, -3.64
1602, -0.40, -0.18, -0.94, 28.28, 15.47, 5.88
1603, -0.34, -0.22, -0.85, 23.24, 11.69, 21.98
1604, -0.35, -0.39, -0.91, 11.83, -1.26, 23.59
1605, -0.33, -0.39, -0.92, -4.06, 4.55, 14.42
1606, -0.32, -0.35, -0.86, -11.06, 2.94, 9.52
1607, -0.32, -0.30, -0.86, -8.26, -5.18, 5.60
1608, -0.34, -0.24, -0.88, -2.52, -6.23, 3.08
1609, -0.36, -0.24, -0.93, -6.51, -7.56, 10.85
1610, -0.38, -0.25, -0.94, -11.76, 1.68, 14.07
1611, -0.35, -0.28, -0.89, -11.06, 1.54, 11.34
1612, -0.34, -0.27, -0.88, -5.46, 2.80, 2.52
1613, -0.33, -0.24, -0.84, -2.31, -4.34, -1.47
1614, -0.37, -0.27, -0.92, -3.29, -10.36, 1.26
1615, -0.36, -0.26, -0.92, -2.31, 1.40, -0.28
1616, -0.34, -0.24, -0.87, -0.35, 1.12, -1.89
1617, -0.35, -0.27, -0.88, 1.68, -4.97, -4.83
1618, -0.34, -0.28, -0.91, 3.29, -5.39, -17.08
1619, -0.35, -0.25, -0.89, 0.35, -11.34, -21.07
1620, -0.37, -0.26, -0.93, -2.17, -10.08, -23.10
1621, -0.35, -0.26, -0.92, -13.51, -14.07, -26.11
1622, -0.37, -0.20, -1.00, -11.62, 9.66, -22.33
1623, -0.36, -0.13, -0.72, 10.01, 34.23, -14.35
1624, -0.37, -0.21, -0.79, 11.13, -40.95, 8.68
1625, -0.47, -0.30, -1.15, -11.62, -14.35, 20.93
1626, -0.38, -0.28, -0.94, -16.38, 31.99, 16.24
1627, -0.31, -0.24, -0.80, -6.79, 6.30, 2.66
1628, -0.33, -0.21, -0.91, -1.33, -5.18, 0.21
1629, -0.35, -0.21, -0.93, -4.13, 0.77, 6.30
1630, -0.36, -0.24, -0.90, -2.10, 5.25, 6.37
1631, -0.33, -0.26, -0.88, -3.22, 3.08, 4.20
1632, -0.35, -0.25, -0.89, -4.27, -0.63, 3.85
1633, -0.33, -0.26, -0.87, -6.09, -0.70, 3.43
1634, -0.34, -0.24, -0.88, -6.51, -8.12, 0.77
1635, -0.35, -0.24, -0.91, -7.28, -8.26, -1.96
1636, -0.35, -0.23, -0.91, -7.28, -4.06, -6.37
1637, -0.35, -0.22, -0.89, -2.87, -5.46, -7.84
1638, -0.35, -0.22, -0.91, -0.77, -6.37, -10.57
1639, -0.36, -0.21, -0.90, 2.38, -2.66, -9.87
1640, -0.35, -0.24, -0.90, 3.78, -5.53, -17.36
1641, -0.34, -0.24, -0.88, 6.65, -9.45, -24.15
1642, -0.35, -0.24, -0.91, 1.96, -17.99, -28.63
1643, -0.35, -0.26, -0.91, -4.41, -12.04, -30.73
1644, -0.37, -0.24, -0.92, -12.39, -9.73, -27.44
1645, -0.38, -0.20, -0.92, -12.18, -5.18, -23.38
1646, -0.36, -0.17, -0.87, -3.50, 12.32, -15.12
1647, -0.38, -0.15, -0.84, -0.77, -7.07, 2.38
1648, -0.41, -0.26, -0.94, 1.61, 1.05, 10.64
1649, -0.38, -0.21, -0.96, 4.76, 11.76, 7.00
1650, -0.37, -0.19, -0.89, 10.22, 24.78, 11.83
1651, -0.33, -0.23, -0.84, 13.79, 8.40, 8.96
1652, -0.34, -0.27, -0.91, 7.21, -2.10, 11.69
1653, -0.34, -0.29, -0.90, 0.56, 1.68, 8.54
1654, -0.34, -0.27, -0.91, -3.99, -2.94, 7.98
1655, -0.34, -0.27, -0.90, -6.79, 1.47, 5.18
1656, -0.33, -0.24, -0.86, -5.04, -4.20, 1.12
1657, -0.33, -0.23, -0.89, -6.23, -13.16, -0.35
1658, -0.35, -0.23, -0.90, -2.94, -7.56, -2.59
1659, -0.38, -0.25, -0.94, -7.98, -14.49, -1.54
1660, -0.38, -0.21, -0.96, -10.29, 1.96, 2.59
1661, -0.36, -0.16, -0.87, -9.59, 4.41, 8.19
1662, -0.36, -0.13, -0.96, -14.35, -8.61, 12.04
1663, -0.38, -0.18, -1.00, -6.16, 22.05, 7.21
1664, -0.29, -0.18, -0.77, 9.87, 33.39, -2.52
1665, -0.27, -0.20, -0.77, 31.29, -5.74, -8.61
1666, -0.36, -0.29, -0.98, 25.76, -6.23, -3.15
1667, -0.35, -0.28, -0.94, 10.36, 13.16, 2.03
1668, -0.33, -0.24, -0.88, 3.64, 8.68, 3.01
1669, -0.32, -0.23, -0.88, 1.47, -2.38, 1.96
1670, -0.35, -0.23, -0.93, -1.19, -10.78, 4.41
1671, -0.35, -0.24, -0.93, -4.69, -6.37, 6.65
1672, -0.34, -0.24, -0.91, -9.03, -5.74, 5.67
1673, -0.33, -0.23, -0.90, -7.77, -3.99, 1.33
1674, -0.34, -0.21, -0.91, -4.62, -4.20, 0.91
1675, -0.34, -0.22, -0.91, -2.38, -0.21, 0.21
1676, -0.35, -0.22, -0.89, 2.87, -1.96, 0.70
1677, -0.34, -0.23, -0.91, 1.68, -2.45, -4.13
1678, -0.35, -0.22, -0.90, 3.64, -0.77, -3.50
1679, -0.35, -0.24, -0.92, 2.87, -1.89, -5.46
1680, -0.34, -0.22, -0.91, 3.78, 3.85, -5.74
1681, -0.33, -0.19, -0.89, 3.85, -2.94, -7.14
1682, -0.34, -0.20, -0.94, 1.19, -2.31, -1.68
1683, -0.34, -0.22, -0.90, 4.13, 6.58, -2.87
1684, -0.35, -0.25, -0.89, 5.88, -1.54, 1.47
1685, -0.35, -0.24, -0.92, -0.49, -1.54, 7.14
1686, -0.35, -0.24, -0.93, -5.95, 0.28, 10.57
1687, -0.33, -0.22, -0.90, -10.22, 0.63, 11.13
1688, -0.35, -0.21, -0.92, -15.40, -9.94, 13.44
1689, -0.35, -0.21, -0.93, -16.52, -2.94, 11.83
1690, -0.33, -0.21, -0.88, -13.30, -3.78, 8.19
1691, -0.34, -0.20, -0.91, -6.93, -8.61, 6.23
1692, -0.36, -0.19, -0.93, -4.20, -3.29, 3.36
1693, -0.36, -0.17, -0.92, -2.94, 1.47, 5.32
1694, -0.35, -0.18, -0.91, -1.61, -0.98, 4.41
1695, -0.36, -0.19, -0.94, -3.01, 2.73, 1.26
1696, -0.34, -0.21, -0.88, -1.26, 4.06, -0.42
1697, -0.36, -0.18, -0.93, -5.67, -4.34, 0.56
1698, -0.36, -0.19, -0.95, -17.92, -7.56, 6.02
1699, -0.35, -0.15, -0.92, -24.36, -9.66, 13.51
1700, -0.33, -0.19, -0.95, -36.05, -22.68, 11.48
1701, -0.40, -0.15, -1.01, -48.86, -19.53, 18.76
1702, -0.43, -0.16, -1.01, -60.76, -2.66, 28.49
1703, -0.38, -0.13, -0.95, -63.49, 20.30, 23.73
1704, -0.34, -0.08, -0.86, -55.23, 19.67, 11.06
1705, -0.32, -0.02, -0.82, -37.52, 7.98, 3.92
1706, -0.32, 0.01, -0.86, -29.75, -7.49, 4.27
1707, -0.36, 0.04, -0.96, -28.14, -4.97, 4.27
1708, -0.29, -0.10, -0.85, -14.91, 12.46, -7.56
1709, -0.33, 0.02, -0.85, 15.61, 4.76, -26.46
1710, -0.31, 0.04, -0.90, 29.96, -3.78, -33.67
1711, -0.34, -0.03, -0.98, 31.15, -2.66, -39.27
1712, -0.36, -0.05, -0.95, 26.04, 7.00, -25.62
1713, -0.37, -0.09, -0.91, 15.33, 1.05, -15.33
1714, -0.37, -0.10, -0.94, 3.57, -3.99, -4.27
1715, -0.36, -0.08, -0.95, -10.36, -2.73, 4.34
1716, -0.37, -0.07, -0.94, -17.43, -6.79, 9.17
1717, -0.37, -0.05, -0.94, -19.60, -6.93, 14.14
1718, -0.35, -0.04, -0.94, -23.38, -4.06, 15.54
1719, -0.36, -0.02, -0.93, -21.56, -0.35, 15.89
1720, -0.34, -0.03, -0.92, -18.06, 0.35, 8.54
1721, -0.34, -0.01, -0.91, -12.39, 0.91, 5.67
1722, -0.33, -0.01, -0.89, -6.09, -17.43, 0.28
1723, -0.34, 0.01, -0.91, -3.78, -5.18, 2.52
1724, -0.34, -0.01, -0.91, -0.70, -4.27, -0.91
1725, -0.35, -0.00, -0.91, 4.06, -4.13, -1.26
1726, -0.36, -0.00, -0.91, 6.51, -4.13, -0.91
1727, -0.37, -0.01, -0.93, 7.98, -5.04, 1.05
1728, -0.37, -0.02, -0.95, 6.65, -2.10, 1.12
1729, -0.36, -0.01, -0.94, 5.74, -2.59, 3.29
1730, -0.37, -0.01, -0.95, 4.34, 0.14, 4.90
1731, -0.36, -0.02, -0.93, 3.78, 0.70, 3.71
1732, -0.36, -0.02, -0.93, 2.59, -0.98, 3.99
1733, -0.36, -0.02, -0.92, 1.47, -1.19, 2.03
1734, -0.36, -0.02, -0.93, 2.03, 0.14, 2.38
1735, -0.36, -0.02, -0.92, 3.01, -0.21, 1.96
1736, -0.36, -0.02, -0.92, 3.71, 1.33, 1.33
1737, -0.36, -0.01, -0.93, 2.45, 0.49, 1.82
1738, -0.37, -0.01, -0.94, 3.64, 5.04, 5.18
1739, -0.35, -0.02, -0.91, 4.06, 2.59, 4.76
1740, -0.36, -0.01, -0.93, 3.36, -0.42, 3.78
1741, -0.36, -0.01, -0.93, 3.08, 1.05, 6.86
1742, -0.39, 0.01, -0.94, -0.63, -0.63, 11.97
1743, -0.37, 0.00, -0.96, -2.45, 3.92, 14.84
1744, -0.38, -0.00, -0.94, -6.16, 5.67, 26.81
1745, -0.38, -0.00, -0.95, -11.34, 3.15, 29.96
1746, -0.35, 0.01, -0.95, -12.53, 8.54, 27.02
1747, -0.33, 0.02, -0.91, -20.86, -0.91, 29.12
1748, -0.34, -0.01, -0.97, -14.91, 10.15, 24.92
1749, -0.32, 0.01, -0.95, -9.24, 14.63, 15.19
1750, -0.31, 0.03, -0.93, -4.13, 14.77, 10.43
1751, -0.31, 0.02, -0.94, -3.43, 7.56, 1.68
1752, -0.34, 0.04, -0.96, 0.07, 4.06, -2.38
1753, -0.31, 0.01, -0.91, 0.42, 2.38, -8.12
1754, -0.28, 0.01, -0.94, -5.74, -4.97, -11.76
1755, -0.32, 0.04, -0.96, -16.10, -4.48, -10.36
1756, -0.33, 0.03, -0.95, -16.66, 2.73, -11.41
1757, -0.32, 0.07, -0.93, -15.89, 0.91, -9.38
1758, -0.31, 0.07, -0.94, -14.56, 1.40, -5.11
1759, -0.33, 0.07, -0.97, -17.92, 6.58, -2.24
1760, -0.32, 0.07, -0.93, -18.62, 10.43, 1.05
1761, -0.32, 0.10, -0.95, -18.41, 7.21, 2.31
1762, -0.33, 0.10, -0.94, -16.59, 11.83, 10.08
1763, -0.31, 0.09, -0.93, -17.08, 11.41, 9.03
1764, -0.29, 0.11, -0.92, -14.28, 7.70, 5.39
1765, -0.29, 0.11, -0.93, -15.33, 5.88, 4.41
1766, -0.31, 0.13, -0.92, -10.99, 5.53, 10.57
1767, -0.30, 0.14, -0.89, -14.56, -7.14, 4.69
1768, -0.26, 0.12, -0.91, -1.75, -1.82, -2.10
1769, -0.28, 0.15, -0.92, 0.28, -6.58, -2.10
1770, -0.30, 0.16, -0.93, 3.85, -1.33, 2.10
1771, -0.25, 0.11, -0.90, 7.00, -6.16, -0.14
1772, -0.30, 0.14, -0.96, 12.25, 2.31, 4.62
1773, -0.27, 0.10, -0.93, 13.30, -0.84, 0.49
1774, -0.27, 0.09, -0.95, 10.50, 2.59, -0.91
1775, -0.28, 0.08, -0.91, 9.24, -4.06, 6.93
1776, -0.28, 0.05, -0.95, -1.05, -18.62, -6.02
1777, -0.30, 0.10, -0.98, -5.67, -6.23, -5.25
1778, -0.32, 0.12, -0.94, -7.14, -2.59, -2.38
1779, -0.30, 0.13, -0.93, -5.11, -6.02, 1.40
1780, -0.28, 0.15, -0.92, -2.10, -3.50, -3.36
1781, -0.29, 0.12, -0.94, -0.91, -4.76, 0.84
1782, -0.30, 0.12, -0.93, -1.96, -2.52, 0.84
1783, -0.30, 0.10, -0.92, -1.75, -2.45, 2.73
1784, -0.30, 0.11, -0.94, -2.31, -2.38, 2.52
1785, -0.31, 0.12, -0.95, -4.20, -2.03, -0.70
1786, -0.30, 0.13, -0.93, -3.57, -1.26, -1.12
1787, -0.30, 0.13, -0.93, -3.36, -1.96, -1.47
1788, -0.31, 0.13, -0.95, -3.36, -0.84, 2.24
1789, -0.31, 0.13, -0.95, -2.17, 1.96, 4.34
1790, -0.30, 0.13, -0.93, -2.38, 4.27, 4.06
1791, -0.30, 0.14, -0.93, -0.91, -1.40, 3.85
1792, -0.31, 0.13, -0.94, -2.38, -0.28, 4.97
1793, -0.29, 0.13, -0.92, -3.64, -0.35, 4.20
1794, -0.29, 0.14, -0.91, -0.70, -2.94, -0.63
1795, -0.31, 0.15, -0.93, 1.40, -5.18, 0.07
1796, -0.31, 0.14, -0.95, 0.84, -2.17, 1.96
1797, -0.31, 0.14, -0.95, -0.63, 1.12, 2.59
1798, -0.30, 0.13, -0.92, 0.56, -0.35, 0.70
1799, -0.31, 0.12, -0.93, 0.56, -3.50, -0.91
1800, -0.31, 0.14, -0.94, 1.68, 2.17, 0.28
1801, -0.31, 0.16, -0.94, -1.05, 4.48, 3.99
1802, -0.28, 0.14, -0.90, 1.61, 0.84, 1.75
1803, -0.29, 0.13, -0.92, 2.94, -7.56, -0.77
1804, -0.31, 0.13, -0.95, 3.92, -2.66, 0.56
1805, -0.31, 0.14, -0.96, 1.75, 1.82, 3.92
1806, -0.29, 0.13, -0.93, 0.98, 4.90, 1.82
1807, -0.29, 0.13, -0.92, -0.28, 0.00, 1.61
1808, -0.31, 0.13, -0.96, -3.36, 0.63, 1.40
1809, -0.28, 0.14, -0.93, -4.48, 1.89, 0.35
1810, -0.26, 0.13, -0.89, -6.79, -8.47, -3.57
1811, -0.31, 0.16, -0.94, 0.49, -7.56, -3.85
1812, -0.31, 0.16, -0.94, 3.50, -1.40, -3.64
1813, -0.29, 0.14, -0.89, 7.42, -3.71, -1.61
1814, -0.28, 0.09, -0.91, 11.97, -13.37, -13.65
1815, -0.28, 0.15, -0.97, 5.60, -8.05, -26.67
1816, -0.28, 0.14, -0.91, 12.60, -3.50, -31.64
1817, -0.29, 0.10, -0.91, 18.83, -12.39, -33.74
1818, -0.32, 0.09, -0.93, 19.67, -14.56, -32.62
1819, -0.34, 0.09, -0.94, 19.04, -5.81, -25.76
1820, -0.34, 0.09, -0.93, 17.99, -0.63, -15.82
1821, -0.33, 0.07, -0.93, 18.27, -0.21, -11.41
1822, -0.34, 0.07, -0.95, 15.82, -1.61, -10.43
1823, -0.32, 0.05, -0.94, 17.08, 4.62, -15.19
1824, -0.34, 0.05, -0.91, 23.87, 3.85, -12.74
1825, -0.33, 0.05, -0.92, 26.04, 3.78, -14.63
1826, -0.29, 0.06, -0.87, 35.21, 4.27, -17.92
1827, -0.33, 0.03, -0.91, 42.28, -9.03, -13.44
1828, -0.36, -0.04, -0.96, 41.09, -2.24, -8.47
1829, -0.33, -0.04, -0.92, 39.97, 4.41, -12.60
1830, -0.32, 0.00, -0.90, 39.13, -6.72, -9.38
1831, -0.36, -0.06, -0.94, 40.39, -16.10, 1.68
1832, -0.35, -0.10, -0.95, 37.59, -3.92, 1.96
1833, -0.31, -0.09, -0.92, 34.79, -4.48, -0.91
1834, -0.33, -0.12, -0.94, 30.31, -13.09, -4.55
1835, -0.33, -0.14, -0.93, 31.22, -4.83, -7.63
1836, -0.33, -0.11, -0.94, 32.20, -7.56, -7.28
1837, -0.35, -0.14, -0.94, 25.41, -4.83, -1.75
1838, -0.35, -0.15, -0.93, 22.75, -0.98, -0.84
1839, -0.34, -0.16, -0.94, 22.40, -0.35, -0.98
1840, -0.35, -0.19, -0.93, 20.86, 4.06, 0.77
1841, -0.33, -0.20, -0.92, 17.85, 9.45, -2.52
1842, -0.31, -0.17, -0.91, 21.84, 6.86, -6.02
1843, -0.34, -0.19, -0.94, 22.75, 8.96, -3.92
1844, -0.33, -0.21, -0.93, 23.45, 15.40, -7.14
1845, -0.31, -0.22, -0.91, 23.59, 23.31, -10.43
1846, -0.32, -0.18, -0.91, 29.54, 24.43, -5.81
1847, -0.30, -0.20, -0.91, 24.43, 22.82, 0.56
1848, -0.30, -0.24, -0.91, 18.55, 18.69, -0.77
1849, -0.29, -0.30, -0.95, 11.27, 11.97, -0.84
1850, -0.27, -0.32, -0.93, 8.68, 12.81, -12.04
1851, -0.27, -0.25, -0.90, 13.58, 20.86, -18.48
1852, -0.26, -0.21, -1.00, 21.98, 15.75, -12.04
1853, -0.30, -0.23, -0.93, 20.51, 7.14, -1.89
1854, -0.28, -0.26, -0.96, 20.09, 15.47, 1.89
1855, -0.25, -0.31, -0.89, 22.26, 22.54, 7.91
1856, -0.24, -0.32, -0.90, 17.71, 4.55, 4.62
1857, -0.24, -0.33, -0.95, 15.47, 8.40, 7.35
1858, -0.23, -0.32, -0.92, 10.92, 7.98, 6.72
1859, -0.21, -0.33, -0.92, 8.61, 4.34, 4.97
1860, -0.22, -0.33, -0.93, 6.93, 0.00, 1.96
1861, -0.20, -0.34, -0.94, 5.25, 6.44, -5.39
1862, -0.21, -0.25, -0.82, 15.05, 7.21, 2.17
1863, -0.24, -0.42, -1.02, -7.56, -28.91, 8.40
1864, -0.26, -0.36, -0.98, -18.97, 10.22, 3.43
1865, -0.21, -0.24, -0.79, -12.18, -3.99, 6.30
1866, -0.24, -0.26, -0.90, -6.44, -26.46, 7.49
1867, -0.29, -0.26, -0.95, -1.47, -8.47, 17.43
1868, -0.24, -0.32, -0.92, 6.65, -1.47, 11.69
1869, -0.21, -0.28, -0.91, 17.64, 6.16, -4.13
1870, -0.21, -0.36, -0.90, 29.61, 2.87, -10.57
1871, -0.23, -0.39, -0.88, 20.23, -12.46, -10.36
1872, -0.23, -0.34, -0.91, 11.62, -13.72, -12.81
1873, -0.24, -0.30, -0.89, 12.25, -8.82, -15.26
1874, -0.28, -0.32, -0.91, 9.17, -16.17, -10.71
1875, -0.29, -0.38, -0.95, 4.20, -10.15, -7.14
1876, -0.27, -0.33, -0.92, 4.41, 7.56, -6.58
1877, -0.22, -0.30, -0.87, 4.20, 5.46, -5.88
1878, -0.26, -0.30, -0.85, 4.90, -1.40, -1.26
1879, -0.26, -0.38, -0.92, 0.35, -13.58, 7.00
1880, -0.25, -0.36, -0.91, -7.35, -5.39, 3.64
1881, -0.26, -0.34, -0.91, -7.91, -5.04, 1.61
1882, -0.27, -0.30, -0.90, -0.63, 1.89, -3.92
1883, -0.26, -0.25, -0.89, -6.02, -8.12, 9.17
1884, -0.25, -0.28, -0.90, -3.85, -4.76, 13.02
1885, -0.26, -0.29, -0.91, -5.53, -9.73, 12.81
1886, -0.26, -0.32, -0.92, -1.54, -7.91, 11.34
1887, -0.29, -0.34, -0.92, 5.04, 0.77, 11.41
1888, -0.29, -0.31, -0.87, 13.30, 5.39, 11.20
1889, -0.29, -0.29, -0.87, 20.58, -4.27, 18.06
1890, -0.30, -0.30, -0.92, 16.73, 0.28, 22.54
1891, -0.29, -0.36, -0.89, 11.55, 3.85, 20.65
1892, -0.29, -0.39, -0.91, 10.64, -0.28, 15.19
1893, -0.27, -0.40, -0.90, 8.47, 5.67, 8.05
1894, -0.28, -0.38, -0.88, 4.34, 5.39, 1.89
1895, -0.29, -0.36, -0.91, 2.10, 2.87, 0.63
1896, -0.32, -0.34, -0.92, -0.70, 6.44, 3.92
1897, -0.30, -0.35, -0.90, -3.50, 9.52, 8.75
1898, -0.28, -0.37, -0.88, -4.13, 6.86, 8.68
1899, -0.28, -0.37, -0.91, -3.85, -0.91, 3.50
1900, -0.28, -0.34, -0.94, -4.76, 10.50, -0.42
1901, -0.25, -0.32, -0.89, -2.87, 13.16, -7.42
1902, -0.23, -0.31, -0.87, 1.82, 14.56, -17.43
1903, -0.29, -0.33, -0.91, 0.56, 13.93, -19.04
1904, -0.22, -0.35, -0.90, -7.70, 13.58, -11.34
1905, -0.21, -0.38, -0.84, -12.74, 4.55, -11.97
1906, -0.20, -0.34, -0.90, -1.19, -3.71, -18.62
1907, -0.20, -0.29, -0.91, 7.91, -0.91, -18.62
1908, -0.23, -0.32, -0.99, 10.57, 4.69, -21.35
1909, -0.24, -0.36, -0.97, -17.36, 16.87, -17.08
1910, -0.20, -0.40, -0.90, -8.19, 14.14, -14.63
1911, -0.18, -0.34, -0.86, -7.84, 5.81, -12.81
1912, -0.17, -0.32, -0.88, -12.88, -6.51, -5.67
1913, -0.16, -0.36, -0.94, -17.92, -9.94, -7.21
1914, -0.19, -0.36, -0.93, -14.28, -1.12, -5.67
1915, -0.13, -0.36, -0.90, -8.19, 13.09, -14.42
1916, -0.12, -0.34, -0.82, 2.73, 4.62, -21.77
1917, -0.14, -0.28, -0.87, 9.52, -3.71, -19.74
1918, -0.17, -0.37, -0.93, 7.84, -10.99, -15.26
1919, -0.22, -0.39, -1.02, 6.86, 1.33, -27.37
1920, -0.17, -0.28, -0.91, 11.41, 13.09, -23.66
1921, -0.15, -0.32, -0.86, 16.52, 1.40, -12.32
1922, -0.18, -0.41, -0.91, 8.96, -8.05, -14.91
1923, -0.21, -0.39, -0.95, 2.66, -2.45, -8.54
1924, -0.19, -0.38, -0.93, -4.76, 4.97, -8.47
1925, -0.16, -0.33, -0.92, -9.73, 0.91, -4.97
1926, -0.14, -0.33, -0.92, -10.78, 8.12, -0.07
1927, -0.15, -0.38, -0.88, -10.43, 5.25, 0.63
1928, -0.18, -0.33, -0.88, -10.64, 3.29, -3.57
1929, -0.12, -0.27, -0.88, -7.63, -6.02, -0.98
1930, -0.19, -0.33, -0.94, -8.12, -16.31, 8.33
1931, -0.19, -0.34, -0.96, -8.26, 1.19, 13.51
1932, -0.16, -0.32, -0.91, -8.12, -7.00, 12.67
1933, -0.17, -0.29, -0.97, -10.99, -8.68, 20.09
1934, -0.18, -0.29, -0.91, -14.14, 0.28, 27.51
1935, -0.15, -0.28, -0.87, -10.29, -2.66, 29.82
1936, -0.16, -0.30, -0.94, -11.76, -8.12, 32.69
1937, -0.16, -0.28, -0.93, -14.07, 1.75, 29.12
1938, -0.18, -0.25, -0.92, -7.98, -0.84, 32.13
1939, -0.20, -0.37, -0.96, -11.27, -6.44, 27.65
1940, -0.25, -0.33, -0.95, -9.94, -8.12, 20.16
1941, -0.22, -0.23, -0.92, -8.61, -13.58, 20.51
1942, -0.18, -0.25, -0.92, -14.28, -25.27, 18.55
1943, -0.24, -0.28, -0.98, -15.05, -24.57, 14.35
1944, -0.26, -0.28, -0.95, -6.02, -1.40, 11.97
1945, -0.19, -0.27, -0.86, 5.04, -5.88, 1.40
1946, -0.21, -0.27, -0.96, 14.91, -9.87, -21.21
1947, -0.24, -0.22, -0.91, 25.83, 2.17, -10.92
1948, -0.26, -0.32, -0.92, 14.28, -17.50, -7.00
1949, -0.27, -0.30, -0.98, 3.71, -4.90, -9.59
1950, -0.21, -0.23, -0.92, -0.98, 6.58, -6.58
1951, -0.22, -0.22, -0.91, -6.02, -3.08, 4.27
1952, -0.26, -0.28, -0.92, -2.52, 3.78, -5.39
1953, -0.21, -0.26, -0.87, 9.24, 11.76, -10.57
1954, -0.22, -0.27, -0.87, 12.11, -9.80, -11.97
1955, -0.23, -0.25, -0.89, 11.83, -4.27, -4.69
1956, -0.24, -0.30, -0.92, -8.40, -40.74, 14.56
1957, -0.38, -0.43, -1.10, -32.76, -28.35, 16.59
1958, -0.28, -0.35, -1.00, -35.56, 7.00, -1.47
1959, -0.22, -0.22, -0.90, -22.89, -2.10, -15.33
1960, -0.21, -0.23, -0.92, -4.90, 4.34, -25.48
1961, -0.22, -0.22, -0.84, 19.74, 18.48, -32.41
1962, -0.17, -0.25, -0.78, 18.55, -9.94, -16.87
1963, -0.32, -0.34, -1.01, 4.55, -22.26, 0.21
1964, -0.30, -0.24, -1.00, -3.22, 15.89, 5.81
1965, -0.23, -0.19, -0.88, -4.62, 21.42, 9.24
1966, -0.26, -0.28, -0.88, -8.68, -12.18, 10.78
1967, -0.30, -0.31, -1.05, -10.08, 3.01, -10.99
1968, -0.23, -0.23, -0.93, -0.49, 33.04, -9.94
1969, -0.26, -0.24, -0.80, 9.52, 22.68, -4.20
1970, -0.19, -0.31, -0.78, 11.27, -3.85, 0.28
1971, -0.20, -0.35, -1.03, -9.10, -40.46, -10.36
1972, -0.32, -0.26, -1.10, -20.86, 1.26, -6.93
1973, -0.21, -0.22, -0.95, -19.53, 18.90, -10.71
1974, -0.26, -0.29, -0.94, -26.53, 1.05, -2.94
1975, -0.24, -0.30, -0.99, -33.25, 4.48, -2.87
1976, -0.21, -0.22, -0.99, -13.44, 31.43, -15.40
1977, -0.21, -0.16, -0.99, 2.52, 45.71, -4.34
1978, -0.12, -0.15, -0.87, 7.28, 38.50, 17.50
1979, -0.17, -0.27, -0.90, 14.63, -1.96, 25.27
1980, -0.10, -0.23, -0.94, 11.20, 20.37, 23.80
1981, -0.12, -0.18, -0.90, 27.51, 8.68, 31.22
1982, -0.23, -0.19, -1.07, 26.04, -11.48, 27.79
1983, -0.25, -0.17, -1.09, 40.95, 12.39, 21.35
1984, -0.27, -0.26, -0.95, 28.35, 49.14, 17.92
1985, -0.18, -0.37, -0.64, 0.14, 34.09, 9.38
1986, 0.08, -0.27, -0.81, -27.23, -39.27, -17.99
1987, -0.23, -0.05, -0.94, -30.38, -14.28, -6.79
1988, -0.07, -0.16, -0.83, -28.35, -39.76, 10.22
1989, -0.18, -0.30, -0.90, -30.52, -74.06, -16.59
1990, -0.21, -0.26, -1.21, -36.82, -46.06, -5.32
1991, -0.24, -0.22, -1.00, -11.76, 13.65, -21.00
1992, -0.12, -0.14, -0.85, 5.88, -35.49, -28.98
1993, -0.23, -0.15, -0.98, 13.58, -39.97, -26.74
1994, -0.25, -0.17, -0.97, -0.63, -28.42, -3.29
1995, -0.30, -0.30, -0.91, 0.98, 5.53, 12.60
1996, -0.25, -0.23, -0.83, 1.26, -5.32, 7.14
1997, -0.16, -0.16, -0.89, 2.80, -28.14, -5.39
1998, -0.23, -0.16, -0.96, 14.77, -21.84, -10.01
1999, -0.31, -0.15, -0.88, 36.19, -7.70, 0.28
2000, -0.27, -0.21, -0.84, 39.41, -35.07, 2.80
2001, -0.25, -0.24, -1.04, 22.12, -37.73, -4.06
2002, -0.34, -0.34, -0.98, 24.85, -4.83, -19.25
2003, -0.29, -0.27, -1.03, 14.49, 8.40, 0.77
2004, -0.28, -0.38, -0.86, -4.97, -3.71, 23.38
2005, -0.43, -0.51, -1.01, -32.06, -27.30, -0.56
2006, -0.33, -0.31, -1.02, -41.44, 5.46, 2.38
2007, -0.32, -0.24, -0.91, -52.99, -5.39, 6.93
2008, -0.30, -0.18, -0.97, -53.90, -9.59, -2.03
2009, -0.33, -0.06, -0.88, -39.90, 8.68, 7.63
2010, -0.25, -0.10, -0.84, -34.58, -21.49, 14.56
2011, -0.37, -0.18, -0.97, -33.95, -27.09, 23.80
2012, -0.36, -0.19, -1.01, -33.74, -1.40, 21.00
2013, -0.32, -0.15, -0.92, -30.03, 10.01, 15.26
2014, -0.30, -0.12, -0.88, -29.40, -3.08, 9.52
2015, -0.31, -0.09, -0.88, -24.22, -10.36, 3.99
2016, -0.29, -0.08, -0.89, -15.82, -6.72, -3.99
2017, -0.31, -0.07, -0.90, -11.34, -13.79, -8.33
2018, -0.36, -0.05, -0.91, -9.03, -15.54, 3.92
2019, -0.35, -0.09, -0.95, -8.54, -11.20, 6.65
2020, -0.38, -0.06, -0.92, -9.73, -8.05, 9.73
2021, -0.34, -0.09, -1.01, -8.26, -0.63, 15.75
2022, -0.43, -0.07, -0.97, -10.57, 6.86, 9.38
2023, -0.28, -0.03, -0.92, -3.08, 14.98, 5.88
2024, -0.32, -0.07, -0.81, 0.14, -8.33, 3.85
2025, -0.35, -0.05, -0.92, 0.21, -11.83, 4.97
2026, -0.31, -0.04, -0.93, 7.91, -9.24, 8.61
2027, -0.30, -0.04, -0.91, 14.77, -3.71, 2.52
2028, -0.24, -0.06, -0.93, 15.82, -13.86, -11.97
2029, -0.31, -0.04, -0.96, 13.23, -0.35, -1.12
2030, -0.31, 0.05, -0.75, 32.55, 7.28, 14.00
2031, -0.40, -0.10, -0.77, 9.31, -79.87, 59.92
2032, -0.56, -0.24, -1.26, -14.28, -74.97, 40.04
2033, -0.50, -0.17, -1.22, -16.24, 25.55, 12.11
2034, -0.37, 0.00, -0.86, -14.63, 38.85, 7.91
2035, -0.35, -0.03, -0.76, -12.95, 3.15, 8.26
2036, -0.36, -0.06, -0.85, -7.49, -9.24, 2.45
2037, -0.39, -0.07, -0.87, -3.50, -8.68, 4.20
2038, -0.38, -0.08, -0.90, -5.81, -11.97, 1.89
2039, -0.40, -0.06, -0.91, -3.08, -4.06, -2.80
2040, -0.41, -0.04, -0.90, -5.04, -10.92, -6.86
2041, -0.42, -0.02, -0.92, -6.72, -7.91, -8.96
2042, -0.41, -0.03, -0.93, -10.01, -12.04, -15.05
2043, -0.40, -0.02, -0.95, -8.05, -0.14, -13.65
2044, -0.42, -0.01, -0.89, -5.04, 0.70, -17.43
2045, -0.39, 0.02, -0.89, -4.90, -7.70, -11.90
2046, -0.41, -0.03, -0.91, -6.79, -16.52, -6.72
2047, -0.45, -0.05, -0.91, -8.96, -10.99, -5.88
2048, -0.42, 0.03, -0.90, -14.56, 0.84, 14.56
2049, -0.41, -0.02, -0.80, -13.23, -5.60, 15.54
2050, -0.43, 0.02, -0.90, -2.94, -21.21, -0.07
2051, -0.47, 0.05, -0.92, 4.62, -6.44, 0.28
2052, -0.45, 0.00, -0.85, 6.72, -5.81, 1.61
2053, -0.44, -0.03, -0.86, 13.16, -13.65, -3.99
2054, -0.47, -0.03, -0.91, 13.23, -10.64, -4.83
2055, -0.47, 0.01, -0.89, 18.13, -2.38, -1.33
2056, -0.49, 0.01, -0.98, 15.96, 2.03, 3.71
2057, -0.46, 0.01, -0.92, 20.16, 28.49, 6.93
2058, -0.43, -0.04, -0.81, 26.18, 24.36, 13.23
2059, -0.42, -0.06, -0.82, 23.24, 2.24, 16.52
2060, -0.36, -0.13, -0.94, 14.28, -7.84, 9.66
2061, -0.40, -0.09, -0.95, 16.80, 9.24, 3.43
2062, -0.40, -0.11, -0.87, 12.88, 13.02, 9.66
2063, -0.39, -0.12, -0.89, 5.81, -6.16, 3.29
2064, -0.41, -0.09, -0.94, 6.09, 0.07, -0.91
2065, -0.42, -0.06, -0.91, 7.00, 4.69, -2.52
2066, -0.40, -0.09, -0.91, 0.00, -0.28, 5.32
2067, -0.46, -0.13, -0.96, -7.77, 0.14, 9.52
2068, -0.42, -0.11, -0.95, -8.96, 16.52, 10.92
2069, -0.38, -0.09, -0.87, -6.58, 17.50, 9.38
2070, -0.38, -0.07, -0.88, -6.58, 4.20, 4.69
2071, -0.39, -0.06, -0.91, 0.07, 8.12, -2.94
2072, -0.35, -0.08, -0.91, 1.82, 9.66, -10.50
2073, -0.37, -0.05, -0.91, 9.45, 15.96, -8.89
2074, -0.36, -0.06, -0.86, 16.38, 12.67, -10.71
2075, -0.35, -0.07, -0.92, 16.03, 0.21, -13.23
2076, -0.37, -0.13, -0.94, 7.63, -2.87, -12.81
2077, -0.39, -0.07, -0.92, 9.17, 6.44, -10.29
2078, -0.35, -0.12, -0.92, -9.10, -10.22, -0.42
2079, -0.40, -0.14, -1.03, -15.96, 14.98, -6.93
2080, -0.36, -0.04, -0.89, -5.74, 21.21, -5.81
2081, -0.34, 0.02, -0.81, 3.64, -0.91, 5.88
2082, -0.36, -0.07, -0.90, 3.15, -23.38, 11.90
2083, -0.41, -0.11, -1.01, 2.87, -6.86, 5.11
2084, -0.40, -0.07, -0.95, 3.08, 14.28, 7.07
2085, -0.36, -0.05, -0.86, 3.64, 10.78, 14.35
2086, -0.36, -0.09, -0.93, -2.52, -10.08, 9.03
2087, -0.38, -0.07, -0.99, -3.08, 12.04, 5.39
2088, -0.35, -0.08, -0.88, -7.28, 8.40, 11.69
2089, -0.36, -0.07, -0.95, -8.05, 1.26, 8.89
2090, -0.35, -0.07, -0.90, 1.26, 13.44, 3.85
2091, -0.34, -0.02, -0.89, 8.61, 6.37, 8.75
2092, -0.33, -0.08, -0.92, 8.75, -0.35, 11.27
2093, -0.37, -0.10, -0.95, 7.56, 4.55, 3.99
2094, -0.34, -0.13, -0.95, 2.45, 5.67, -1.54
2095, -0.34, -0.11, -0.92, 0.98, 8.19, -3.71
2096, -0.33, -0.06, -0.90, 1.75, 1.12, -5.32
2097, -0.34, -0.03, -0.90, 2.52, -1.54, 2.24
2098, -0.35, -0.06, -0.92, 7.77, -0.77, 6.16
2099, -0.35, -0.06, -0.94, 11.06, -1.12, 0.28
2100, -0.33, -0.11, -0.96, 8.61, 3.15, -1.47
2101, -0.33, -0.12, -0.92, 10.99, 9.31, -12.95
2102, -0.31, -0.07, -0.89, 14.49, 5.32, -12.32
2103, -0.33, -0.04, -0.90, 18.48, -4.90, -5.39
2104, -0.34, -0.06, -0.93, 7.28, -13.02, 11.62
2105, -0.38, -0.16, -1.01, -15.19, -18.48, 16.80
2106, -0.39, -0.16, -1.04, -23.73, 13.58, 10.92
2107, -0.34, -0.08, -0.88, -20.79, 23.80, 12.53
2108, -0.29, -0.03, -0.88, -13.44, 5.67, 7.84
2109, -0.31, -0.06, -0.90, -4.97, -5.74, 1.26
2110, -0.32, -0.09, -0.94, 3.50, -1.26, -4.97
2111, -0.33, -0.04, -0.92, 4.13, -3.85, 3.22
2112, -0.34, -0.08, -0.96, 0.63, -4.20, 1.54
2113, -0.33, -0.06, -0.96, 6.09, 7.28, -1.26
2114, -0.32, -0.06, -0.91, 10.43, 9.31, -2.38
2115, -0.32, -0.02, -0.90, 17.64, 7.35, 1.47
2116, -0.33, -0.06, -0.90, 23.10, 3.01, 16.45
2117, -0.34, -0.08, -0.98, 24.64, 1.75, 9.45
2118, -0.31, -0.06, -0.97, 33.39, 21.28, 8.75
2119, -0.29, -0.10, -0.92, 29.75, 19.32, 4.97
2120, -0.27, -0.11, -0.95, 15.40, -2.03, 3.50
2121, -0.30, -0.10, -0.98, 11.69, 14.28, 1.75
2122, -0.34, -0.18, -0.91, -1.89, 7.14, 21.49
2123, -0.33, -0.22, -1.01, -17.85, -1.47, 20.58
2124, -0.36, -0.15, -1.04, -32.27, 10.78, 13.93
2125, -0.26, -0.08, -0.94, -29.05, 25.13, 10.01
2126, -0.22, -0.08, -0.85, -19.81, 10.92, 4.55
2127, -0.24, -0.08, -0.87, -0.07, -0.98, -1.89
2128, -0.27, -0.12, -0.93, 3.36, -1.33, 1.68
2129, -0.29, -0.06, -1.01, 1.19, 2.45, -2.31
2130, -0.26, -0.03, -0.98, 8.26, 23.38, -1.47
2131, -0.25, -0.06, -0.88, 14.21, 12.25, -2.66
2132, -0.27, -0.09, -0.91, 14.91, -5.67, 5.11
2133, -0.29, -0.11, -1.03, 10.71, -4.76, 1.12
2134, -0.28, -0.10, -0.97, 15.54, 21.42, -0.35
2135, -0.22, -0.09, -0.91, 28.42, 25.20, 8.05
2136, -0.21, -0.07, -0.88, 24.36, -1.82, -8.75
2137, -0.24, -0.22, -0.93, 12.88, -20.23, -3.64
2138, -0.33, -0.15, -0.98, 5.04, -12.53, 9.52
2139, -0.24, -0.11, -0.95, -2.31, -5.39, 12.04
2140, -0.26, -0.20, -1.04, -9.66, -8.40, -5.88
2141, -0.25, -0.09, -0.94, -11.55, 18.48, -1.89
2142, -0.30, -0.17, -0.85, -28.42, -28.35, 16.10
2143, -0.32, -0.17, -1.09, -41.02, -25.34, 15.61
2144, -0.27, -0.09, -0.99, -37.31, 21.35, 15.40
2145, -0.21, -0.05, -0.85, -29.82, 3.50, 7.49
2146, -0.21, -0.05, -0.90, -20.58, -15.82, 4.48
2147, -0.26, -0.06, -0.97, -16.17, -16.45, 0.21
2148, -0.27, -0.04, -0.96, -11.62, -2.59, 0.00
2149, -0.26, -0.05, -0.93, -10.43, -11.41, -4.97
2150, -0.29, -0.02, -0.97, -8.82, -10.22, -5.25
2151, -0.30, -0.02, -0.97, -10.71, -7.98, -4.83
2152, -0.29, 0.00, -0.94, -6.02, 0.21, -2.80
2153, -0.29, -0.01, -0.92, -7.49, -10.43, 1.82
2154, -0.30, -0.03, -0.98, -6.79, -6.09, -0.84
2155, -0.29, -0.01, -0.92, -1.05, 1.19, -2.73
2156, -0.29, -0.04, -0.91, 3.15, -6.44, -2.45
2157, -0.29, -0.06, -0.96, 6.93, -6.86, -15.47
2158, -0.29, -0.03, -0.98, 3.71, 17.64, -18.34
2159, -0.27, -0.02, -0.92, 0.28, -3.22, -28.14
2160, -0.25, 0.02, -0.95, 1.33, -3.64, -12.88
2161, -0.32, 0.07, -0.92, 2.59, -5.32, 2.52
2162, -0.38, -0.04, -1.01, -0.91, -14.28, 17.15
2163, -0.36, -0.01, -1.07, -8.54, 12.18, 12.95
2164, -0.29, -0.04, -0.92, -7.42, 25.83, 13.72
2165, -0.28, -0.03, -0.90, -7.00, 8.96, 13.30
2166, -0.25, -0.03, -0.92, -3.01, 4.69, 10.64
2167, -0.27, -0.04, -0.95, -7.14, -3.01, 6.09
2168, -0.28, -0.01, -0.96, -8.75, 2.03, 7.28
2169, -0.27, -0.00, -0.96, -7.84, -0.07, 6.30
2170, -0.28, 0.02, -0.97, -6.86, 1.54, 6.86
2171, -0.27, 0.01, -0.94, -5.88, 3.43, 8.40
2172, -0.27, -0.01, -0.94, -2.45, 2.45, 5.32
2173, -0.27, 0.01, -0.94, -1.05, 0.70, 5.32
2174, -0.27, -0.01, -0.94, -1.19, -2.10, 5.74
2175, -0.28, 0.01, -0.96, 0.98, 0.70, 4.34
2176, -0.26, 0.03, -0.95, 3.22, 3.22, 2.80
2177, -0.28, 0.00, -0.97, -0.35, -0.07, 2.66
2178, -0.30, 0.05, -0.97, 1.33, 6.16, 13.58
2179, -0.28, 0.08, -0.98, 0.77, 11.90, 15.12
2180, -0.26, 0.07, -0.95, 0.49, 11.13, 25.83
2181, -0.29, -0.01, -0.95, 3.85, 5.25, 27.58
2182, -0.18, -0.02, -0.93, 9.24, 9.38, 7.28
2183, -0.23, -0.03, -0.92, 0.56, -11.90, 6.16
2184, -0.26, -0.04, -1.02, -5.39, -9.45, -1.54
2185, -0.27, -0.01, -0.97, -0.84, 11.13, -14.21
2186, -0.23, 0.04, -0.91, -8.82, -2.66, -10.64
2187, -0.28, 0.05, -1.00, -13.93, -9.45, -0.56
2188, -0.28, 0.07, -0.98, -12.18, 4.13, 6.09
2189, -0.26, 0.03, -0.94, -13.86, 1.05, 6.16
2190, -0.27, 0.05, -0.94, -10.57, 0.28, 5.46
2191, -0.25, 0.03, -0.94, -9.03, -1.19, 1.68
2192, -0.24, 0.03, -0.91, -6.16, -5.53, -4.55
2193, -0.24, 0.04, -0.94, -0.07, -10.71, -9.10
2194, -0.26, 0.03, -0.98, -0.91, -13.93, -14.49
2195, -0.26, 0.05, -0.98, -1.33, -7.14, -20.16
2196, -0.25, 0.01, -0.97, -8.47, -15.61, -29.47
2197, -0.28, 0.06, -0.97, -12.67, -6.23, -26.74
2198, -0.29, 0.06, -0.98, -24.29, -2.17, -19.04
2199, -0.27, 0.08, -0.95, -14.91, 11.13, -18.48
2200, -0.25, 0.16, -0.92, -6.72, 7.14, -13.79
2201, -0.31, 0.14, -0.93, -5.53, -0.91, -5.60
2202, -0.29, 0.06, -0.98, 4.06, 6.37, -2.87
2203, -0.30, 0.05, -0.96, 0.42, 5.74, -0.28
2204, -0.28, 0.06, -0.96, -0.77, 10.36, -0.63
2205, -0.24, 0.05, -0.93, -1.89, 7.14, -4.55
2206, -0.25, 0.04, -0.91, -0.28, 1.75, -3.78
2207, -0.26, 0.03, -0.96, -1.75, -5.39, -4.76
2208, -0.26, 0.07, -0.95, -1.54, -0.70, -4.83
2209, -0.25, 0.05, -0.95, -3.15, -4.90, -5.32
2210, -0.25, 0.05, -0.95, -2.31, -1.61, -7.63
2211, -0.25, 0.05, -0.94, 0.00, -4.69, -8.40
2212, -0.26, 0.06, -0.93, 0.56, -6.72, -7.77
2213, -0.27, 0.05, -0.95, 2.45, -7.00, -7.14
2214, -0.26, 0.03, -0.95, 3.50, -7.49, -11.76
2215, -0.22, -0.03, -0.96, 1.75, -8.47, -37.45
2216, -0.21, -0.01, -0.94, -1.12, -10.22, -51.10
2217, -0.21, 0.04, -0.91, -4.34, -9.66, -54.04
2218, -0.30, 0.12, -0.90, -3.01, -20.65, -43.68
2219, -0.34, 0.22, -0.96, 5.81, -10.22, -12.74
2220, -0.39, 0.13, -1.03, -1.26, -21.14, 6.37
2221, -0.40, 0.03, -1.11, -8.47, 7.98, 12.25
2222, -0.33, 0.06, -0.93, -9.80, 24.22, 9.59
2223, -0.27, 0.03, -0.87, -10.22, 4.76, 11.20
2224, -0.27, 0.04, -0.91, -6.02, 0.63, 7.91
2225, -0.28, 0.06, -0.93, -2.17, 0.70, 9.38
2226, -0.29, 0.07, -0.93, 0.42, 0.49, 12.11
2227, -0.29, 0.05, -0.96, -2.03, -4.13, 13.16
2228, -0.28, 0.04, -0.97, -5.25, 1.12, 8.47
2229, -0.28, 0.05, -0.92, -4.62, 1.47, 4.34
2230, -0.27, 0.08, -0.93, -3.57, -1.33, 3.85
2231, -0.26, 0.08, -0.92, 1.26, -3.71, 1.54
2232, -0.27, 0.06, -0.96, 7.35, -2.66, -7.21
2233, -0.24, 0.04, -0.92, 14.14, 3.85, -22.12
2234, -0.24, -0.04, -1.05, 10.36, 8.68, -63.84
2235, -0.22, 0.03, -0.90, 21.00, 38.15, -57.26
2236, -0.23, 0.06, -0.83, 5.74, -15.47, -49.56
2237, -0.36, 0.21, -0.93, 8.19, -22.68, -6.37
2238, -0.39, 0.16, -1.02, -3.92, -34.09, 28.28
2239, -0.43, -0.03, -1.19, -18.76, -8.05, 26.60
2240, -0.35, 0.01, -0.98, -22.75, 32.48, 23.24
2241, -0.24, 0.04, -0.83, -21.63, 14.00, 20.93
2242, -0.23, 0.05, -0.87, -16.38, -4.62, 12.53
2243, -0.30, 0.12, -0.92, -6.58, -2.38, 17.64
2244, -0.27, 0.09, -0.94, -9.24, -11.06, 25.20
2245, -0.34, 0.08, -1.02, -10.29, -3.01, 24.43
2246, -0.29, 0.09, -0.99, -12.60, 15.05, 21.28
2247, -0.26, 0.08, -0.91, -12.81, 10.01, 17.78
2248, -0.25, 0.09, -0.93, -14.00, 3.57, 15.75
2249, -0.26, 0.13, -0.91, -6.30, 7.98, 12.32
2250, -0.25, 0.14, -0.91, -1.19, 2.45, 10.57
2251, -0.24, 0.13, -0.95, 0.63, 1.26, 3.71
2252, -0.25, 0.14, -0.95, 1.26, 1.12, 1.47
2253, -0.25, 0.11, -0.93, 0.84, 1.61, 4.48
2254, -0.23, 0.14, -0.97, 0.70, 1.75, 0.35
2255, -0.28, 0.14, -0.92, 2.52, -0.07, 3.71
2256, -0.25, 0.13, -0.95, 0.84, -5.95, 7.84
2257, -0.29, 0.13, -0.97, -3.29, -5.53, 10.99
2258, -0.27, 0.12, -0.98, -11.06, -3.01, 14.63
2259, -0.27, 0.13, -0.96, -11.62, 1.89, 14.14
2260, -0.25, 0.15, -0.94, -13.51, 0.42, 16.03
2261, -0.25, 0.15, -0.95, -16.10, -3.43, 16.17
2262, -0.27, 0.16, -0.96, -19.25, -2.17, 21.14
2263, -0.26, 0.16, -0.97, -22.26, 1.54, 20.44
2264, -0.25, 0.17, -0.96, -22.47, 8.96, 20.44
2265, -0.24, 0.17, -0.94, -23.66, 8.40, 17.99
2266, -0.23, 0.19, -0.93, -22.68, 9.66, 16.38
2267, -0.23, 0.20, -0.93, -14.14, 13.86, 12.74
2268, -0.22, 0.21, -0.91, -5.04, 15.96, 11.62
2269, -0.20, 0.23, -0.91, 2.45, 12.11, 5.46
2270, -0.21, 0.25, -0.94, 10.08, 10.85, 3.92
2271, -0.21, 0.24, -0.95, 9.24, 11.48, 0.56
2272, -0.21, 0.21, -0.94, 13.51, 16.03, -6.23
2273, -0.18, 0.27, -0.91, 25.55, 18.13, -7.35
2274, -0.17, 0.26, -0.94, 26.74, 13.44, -1.82
2275, -0.19, 0.19, -0.97, 22.89, 11.69, 4.06
2276, -0.19, 0.16, -0.95, 18.97, 11.06, 5.88
2277, -0.17, 0.13, -0.96, 12.81, 10.64, 6.51
2278, -0.16, 0.14, -0.93, 7.28, 4.34, 6.30
2279, -0.15, 0.15, -0.94, 1.68, -2.52, 7.56
2280, -0.17, 0.16, -0.96, -1.82, -4.62, 12.74
2281, -0.18, 0.16, -0.97, -6.23, -6.58, 11.41
2282, -0.17, 0.17, -0.96, -1.54, 1.47, 8.75
2283, -0.16, 0.19, -0.96, 5.18, 1.96, 7.56
2284, -0.16, 0.21, -0.94, 11.48, 5.32, 10.43
2285, -0.15, 0.17, -0.94, 13.37, 3.08, 10.78
2286, -0.17, 0.14, -0.95, 15.47, -1.54, 6.86
2287, -0.15, 0.13, -0.96, 14.98, -1.47, 2.17
2288, -0.15, 0.14, -0.97, 11.69, -1.40, 3.85
2289, -0.15, 0.12, -0.98, 9.10, -1.89, 2.73
2290, -0.16, 0.11, -0.98, 4.97, -3.22, 0.56
2291, -0.16, 0.13, -0.98, 0.35, -2.66, -0.28
2292, -0.16, 0.15, -0.97, -1.61, -2.24, 2.24
2293, -0.19, 0.17, -0.99, -2.94, -1.68, 2.10
2294, -0.16, 0.14, -0.98, -3.78, 0.56, 0.56
2295, -0.16, 0.15, -0.95, -7.14, -0.28, 7.07
2296, -0.16, 0.15, -0.98, -7.21, -2.45, 5.67
2297, -0.15, 0.19, -0.97, -4.27, 3.01, 7.70
2298, -0.17, 0.19, -0.97, -7.28, 2.38, 13.72
2299, -0.17, 0.18, -0.97, -8.47, 3.71, 17.92
2300, -0.17, 0.18, -0.97, -6.65, 7.77, 16.80
2301, -0.16, 0.19, -0.96, -4.41, 8.96, 20.65
2302, -0.14, 0.16, -0.94, -5.18, 7.14, 19.11
2303, -0.13, 0.15, -0.97, -3.92, 3.85, 14.07
2304, -0.11, 0.16, -0.96, 4.83, 11.48, 7.98
2305, -0.13, 0.20, -0.91, 2.17, -0.14, 7.84
2306, -0.07, 0.11, -0.95, -0.84, -3.29, 3.71
2307, -0.10, 0.16, -0.96, 3.36, 3.71, 2.52
2308, -0.09, 0.14, -0.93, 2.80, -2.38, -3.29
2309, -0.11, 0.15, -0.94, 1.19, -10.99, -7.21
2310, -0.12, 0.16, -0.99, -1.75, -8.26, -7.77
2311, -0.12, 0.18, -0.96, -1.26, -7.63, -10.99
2312, -0.12, 0.19, -0.96, -0.14, -7.84, -10.71
2313, -0.13, 0.18, -0.95, 1.68, -7.77, -10.92
2314, -0.14, 0.18, -0.96, 3.85, -8.33, -13.51
2315, -0.14, 0.19, -0.96, 4.34, -4.20, -9.80
2316, -0.15, 0.17, -0.95, 4.97, -10.43, -10.71
2317, -0.16, 0.18, -0.96, 9.87, -5.81, -10.01
2318, -0.16, 0.17, -0.97, 8.82, -4.90, -10.01
2319, -0.16, 0.15, -0.97, 5.53, -5.18, -9.03
2320, -0.16, 0.13, -0.95, 7.56, -6.09, -13.93
2321, -0.15, 0.19, -0.94, 19.04, 4.76, -13.51
2322, -0.16, 0.17, -0.91, 16.80, -11.41, -5.67
2323, -0.17, 0.14, -1.00, 20.30, -10.99, -8.26
2324, -0.17, 0.13, -0.98, 19.25, -5.11, -9.52
2325, -0.18, 0.12, -0.97, 14.63, -8.12, -7.35
2326, -0.19, 0.14, -0.96, 17.22, -0.98, -2.66
2327, -0.19, 0.12, -0.98, 11.90, -6.72, 5.67
2328, -0.19, 0.10, -0.98, 9.38, -3.92, 6.37
2329, -0.18, 0.09, -0.98, 9.52, -0.56, 6.37
2330, -0.18, 0.09, -0.95, 7.28, -2.59, 7.28
2331, -0.18, 0.08, -0.98, 5.53, -3.29, 7.00
2332, -0.18, 0.08, -0.97, 4.83, 0.14, 6.09
2333, -0.17, 0.08, -0.96, 4.13, -0.77, 3.22
2334, -0.17, 0.07, -0.97, 5.81, 1.26, 1.61
2335, -0.18, 0.07, -0.96, 2.87, 0.35, 0.35
2336, -0.19, 0.08, -0.96, 4.34, 1.89, -0.91
2337, -0.18, 0.10, -0.97, 4.83, -2.03, -2.73
2338, -0.18, 0.11, -0.98, 8.40, 2.66, -3.22
2339, -0.17, 0.08, -0.96, 8.40, 1.82, -1.89
2340, -0.18, 0.07, -0.97, 9.03, 1.89, -3.43
2341, -0.17, 0.06, -0.97, 8.61, 3.15, -5.67
2342, -0.17, 0.07, -0.95, 10.78, 3.08, -5.25
2343, -0.18, 0.07, -0.97, 10.36, -0.56, -7.70
2344, -0.17, 0.06, -0.99, 8.54, 0.49, -9.45
2345, -0.17, 0.06, -0.97, 7.07, 2.17, -10.29
2346, -0.17, 0.07, -0.97, 10.15, 1.96, -7.84
2347, -0.16, 0.07, -0.97, 12.95, 1.12, -7.42
2348, -0.16, 0.04, -0.96, 10.99, 1.96, -7.07
2349, -0.16, 0.02, -0.97, 13.58, -0.35, -10.57
2350, -0.16, 0.04, -0.97, 15.82, 1.47, -10.08
2351, -0.15, 0.03, -0.99, 9.66, -2.73, -7.07
2352, -0.18, 0.01, -1.00, 3.57, -2.45, -5.11
2353, -0.18, 0.01, -0.98, 1.89, 2.03, -5.60
2354, -0.16, 0.02, -0.97, 1.05, 0.98, -4.83
2355, -0.17, 0.03, -0.97, 2.52, 2.87, -3.78
2356, -0.17, 0.03, -0.96, 3.36, 0.14, -1.96
2357, -0.17, 0.02, -0.99, 3.01, -0.84, -3.08
2358, -0.16, 0.01, -0.97, 2.94, 3.50, -3.85
2359, -0.15, -0.01, -0.98, 1.68, 2.73, -9.24
2360, -0.16, 0.02, -0.97, 4.13, 6.09, -9.17
2361, -0.14, 0.01, -0.96, 3.85, 0.21, -11.62
2362, -0.16, 0.03, -0.98, 8.89, 6.44, -11.13
2363, -0.18, 0.02, -0.97, 5.04, 0.91, -6.09
2364, -0.17, -0.02, -1.00, 3.85, -0.70, -5.46
2365, -0.13, 0.01, -0.98, 8.19, 12.88, -7.42
2366, -0.14, -0.03, -0.94, -0.35, -3.43, -6.51
2367, -0.16, -0.06, -1.01, -4.20, -2.31, -11.76
2368, -0.12, 0.00, -0.96, -4.20, 3.99, -11.62
2369, -0.11, -0.02, -0.94, -7.00, -6.79, -14.21
2370, -0.15, 0.01, -1.00, -5.81, -5.11, -14.56
2371, -0.13, 0.01, -1.01, -2.17, 2.66, -12.81
2372, -0.15, 0.06, -0.99, -0.35, 3.92, -16.52
2373, -0.16, 0.04, -0.97, 0.14, -0.84, -8.47
2374, -0.17, 0.01, -0.98, 8.33, 5.88, -9.52
2375, -0.13, -0.03, -0.96, 0.77, 3.57, -6.86
2376, -0.14, -0.04, -0.99, -6.51, -6.79, -12.53
2377, -0.15, -0.00, -0.98, -6.79, 3.29, -11.69
2378, -0.12, -0.01, -0.92, -8.96, -3.08, -11.48
2379, -0.13, -0.02, -1.00, -10.85, -10.36, -17.78
2380, -0.16, 0.04, -0.99, -12.04, -6.65, -22.54
2381, -0.16, 0.01, -1.01, -7.91, -1.12, -27.51
2382, -0.15, 0.07, -0.95, 0.91, 13.72, -18.83
2383, -0.13, -0.02, -0.93, -0.14, -1.12, -21.28
2384, -0.14, 0.06, -0.97, 2.59, -3.15, -12.95
2385, -0.18, 0.06, -0.93, -9.73, -14.35, 6.93
2386, -0.16, -0.00, -1.02, -20.72, -25.97, 2.31
2387, -0.21, 0.06, -1.05, -26.04, -18.69, -1.47
2388, -0.18, 0.08, -0.99, -17.01, 7.28, 1.47
2389, -0.15, 0.08, -0.89, -12.39, -7.21, 7.84
2390, -0.15, 0.08, -0.94, -2.38, -13.44, 10.01
2391, -0.18, 0.02, -0.98, -3.57, -21.77, 4.27
2392, -0.20, 0.04, -1.02, 2.03, -7.21, -2.03
2393, -0.20, 0.09, -0.96, 4.34, -6.23, -0.70
2394, -0.19, 0.11, -1.00, 11.76, -2.66, -3.22
2395, -0.15, 0.09, -0.93, 23.73, 10.50, -3.22
2396, -0.17, 0.01, -0.92, 25.13, -4.20, -1.47
2397, -0.18, -0.02, -1.00, 16.52, -10.01, -9.24
2398, -0.17, -0.01, -1.00, 11.34, -1.89, -17.29
2399, -0.20, 0.07, -0.97, 15.75, 3.50, -13.23
2400, -0.20, 0.13, -0.97, 14.00, 7.91, 12.88
2401, -0.22, -0.03, -0.96, -2.31, -15.54, 22.12
2402, -0.21, -0.04, -1.05, -3.22, -3.50, 15.40
2403, -0.21, 0.04, -0.95, -6.02, -2.73, 16.80
2404, -0.20, 0.04, -1.02, 0.00, 4.55, 13.37
2405, -0.16, 0.04, -0.93, 9.31, 9.87, 9.94
2406, -0.15, -0.01, -0.93, 15.05, 0.14, 1.19
2407, -0.17, -0.03, -0.96, 11.34, -5.25, 1.54
2408, -0.19, -0.01, -0.99, 8.12, 2.38, -2.03
2409, -0.19, 0.02, -0.96, 4.27, 4.55, -1.33
2410, -0.19, 0.03, -0.99, 7.77, 4.55, -4.34
2411, -0.15, 0.01, -0.95, 16.73, 17.92, -2.03
2412, -0.18, -0.03, -0.93, 10.15, -6.86, 0.98
2413, -0.22, 0.00, -1.03, 5.18, -5.39, 6.16
2414, -0.19, 0.02, -0.99, 1.26, 1.82, 14.63
2415, -0.20, -0.06, -0.98, -13.02, -10.78, 13.09
2416, -0.16, -0.08, -0.99, -6.30, 5.32, -0.77
2417, -0.14, 0.02, -0.88, -1.68, -7.00, -0.49
2418, -0.17, 0.02, -1.02, -5.46, -14.98, 5.67
2419, -0.18, 0.02, -1.00, 4.97, 3.99, 4.97
2420, -0.19, 0.03, -0.94, 11.06, -1.54, 4.69
2421, -0.18, 0.03, -0.98, 14.91, -5.32, 1.89
2422, -0.16, 0.03, -0.98, 11.97, -4.69, 8.19
2423, -0.19, 0.03, -0.96, 14.00, -5.53, 8.40
2424, -0.16, 0.02, -0.97, 27.23, 6.72, 8.82
2425, -0.18, 0.02, -0.93, 29.54, 1.26, 15.54
2426, -0.16, -0.05, -1.03, 23.66, -5.46, 8.54
2427, -0.20, -0.06, -1.05, 23.03, 8.68, 11.69
2428, -0.23, -0.04, -0.95, 12.67, 12.88, 25.06
2429, -0.20, -0.19, -0.97, -2.94, -10.92, 10.78
2430, -0.20, -0.13, -1.00, -5.18, 4.20, 1.54
2431, -0.19, -0.09, -0.93, -22.19, -9.80, 16.45
2432, -0.21, -0.08, -0.98, -33.39, -14.63, 23.24
2433, -0.18, -0.06, -0.99, -27.16, -4.41, 16.94
2434, -0.16, 0.00, -0.95, -20.16, -2.10, 13.37
2435, -0.17, -0.02, -0.93, -14.07, -6.65, 11.97
2436, -0.19, -0.02, -0.96, -8.54, -9.59, 8.26
2437, -0.19, 0.00, -0.98, -6.93, -5.46, 4.62
2438, -0.19, 0.02, -0.98, -5.81, -4.06, 2.17
2439, -0.17, 0.04, -0.98, 0.42, -0.70, 0.35
2440, -0.18, 0.04, -0.96, 2.66, -1.47, 2.10
2441, -0.21, -0.00, -0.98, -2.45, -9.10, 2.80
2442, -0.21, -0.00, -0.99, -3.08, -0.28, 1.33
2443, -0.20, 0.02, -0.95, -0.63, 2.73, 0.70
2444, -0.19, 0.02, -0.95, 2.10, -0.35, 0.63
2445, -0.19, 0.02, -0.97, 3.64, -0.77, -0.49
2446, -0.21, 0.02, -0.97, 5.81, -0.49, -2.17
2447, -0.22, 0.02, -0.97, 10.64, 6.02, -2.59
2448, -0.19, 0.04, -0.98, 18.20, 4.90, -2.80
2449, -0.20, 0.09, -0.99, 24.15, 15.54, 6.58
2450, -0.20, -0.05, -0.96, 9.38, -6.02, 12.60
2451, -0.19, -0.08, -1.03, 3.43, 4.48, 8.05
2452, -0.16, -0.07, -0.94, -5.88, -0.63, 0.00
2453, -0.18, -0.03, -0.98, -12.25, -2.45, 4.62
2454, -0.18, 0.01, -0.96, -11.90, -2.03, 3.92
2455, -0.20, 0.00, -1.00, -17.99, -10.78, 7.63
2456, -0.22, 0.01, -1.02, -16.38, 3.43, 7.70
2457, -0.19, 0.02, -0.94, -13.72, 2.94, 4.90
2458, -0.18, 0.04, -0.96, -10.85, -0.70, 3.15
2459, -0.18, 0.03, -0.94, -6.58, 0.84, 1.75
2460, -0.19, 0.02, -0.96, -3.92, -4.62, -0.98
2461, -0.19, 0.04, -0.98, -2.45, -1.82, -0.21
2462, -0.18, 0.04, -0.96, -0.21, -0.42, -0.70
2463, -0.19, 0.03, -0.96, -0.70, -3.92, 0.91
2464, -0.20, 0.02, -0.99, -4.06, -6.23, 0.35
2465, -0.19, 0.02, -0.98, -5.60, 0.00, 0.07
2466, -0.18, 0.04, -0.96, -5.60, -4.55, -3.57
2467, -0.18, 0.03, -0.96, -8.33, -10.50, -3.92
2468, -0.20, 0.05, -0.99, -10.64, -4.97, -4.20
2469, -0.19, 0.04, -0.97, -15.12, -7.98, -2.03
2470, -0.19, 0.06, -1.01, -11.06, -0.14, -4.83
2471, -0.18, 0.11, -0.93, -7.00, 2.73, -3.50
2472, -0.20, 0.07, -0.97, -6.44, -4.20, 0.42
2473, -0.22, 0.06, -0.98, -5.88, -0.70, 0.35
2474, -0.24, 0.05, -0.99, -6.23, 5.81, 3.01
2475, -0.20, 0.06, -0.93, -4.41, 7.21, 3.78
2476, -0.18, 0.06, -0.95, -3.08, -1.26, 0.35
2477, -0.20, 0.06, -0.96, -5.04, -2.45, 0.49
2478, -0.19, 0.07, -0.97, -4.83, -0.98, 1.05
2479, -0.19, 0.08, -0.97, -7.00, -0.42, 1.47
2480, -0.18, 0.08, -0.95, -5.32, -1.96, 0.35
2481, -0.19, 0.09, -0.95, -2.31, -3.64, -2.73
2482, -0.19, 0.09, -0.95, -2.52, -5.74, -3.85
2483, -0.20, 0.08, -0.97, -3.08, -6.72, -3.01
2484, -0.20, 0.07, -0.98, -0.21, -5.67, -7.42
2485, -0.18, 0.07, -0.96, -1.75, -4.90, -12.95
2486, -0.19, 0.06, -0.93, -1.82, -10.15, -20.30
2487, -0.18, 0.08, -0.94, 0.00, -14.21, -24.22
2488, -0.21, 0.10, -0.96, 1.96, -13.23, -16.45
2489, -0.24, 0.14, -0.98, 4.06, -6.37, -8.89
2490, -0.25, 0.13, -1.01, -2.24, -9.17, -0.28
2491, -0.28, 0.10, -0.99, -5.32, -3.43, 7.07
2492, -0.25, 0.10, -0.98, -4.69, 4.55, 7.00
2493, -0.22, 0.08, -0.92, -3.57, 3.29, 8.54
2494, -0.22, 0.09, -0.95, -4.90, -4.34, 8.68
2495, -0.21, 0.07, -0.95, -6.58, -5.81, 8.82
2496, -0.22, 0.09, -0.96, -3.50, -4.20, 6.51
2497, -0.22, 0.10, -0.95, -7.28, -5.67, 9.10
2498, -0.23, 0.11, -0.96, -9.03, -7.07, 9.31
2499, -0.24, 0.12, -0.97, -10.64, -10.29, 12.04
2500, -0.24, 0.11, -0.97, -13.65, -6.30, 14.49
2501, -0.25, 0.12, -0.96, -13.58, -3.99, 15.75
2502, -0.23, 0.12, -0.96, -12.18, 0.98, 15.54
2503, -0.23, 0.12, -0.95, -11.90, 2.59, 11.76
2504, -0.24, 0.17, -0.95, -7.98, 7.63, 10.29
2505, -0.26, 0.23, -0.96, -2.80, 8.40, 24.64
2506, -0.22, 0.24, -0.99, 1.12, 11.06, 27.30
2507, -0.20, 0.15, -0.96, -3.08, 13.09, 28.63
2508, -0.17, 0.11, -0.90, 15.05, 18.06, 9.59
2509, -0.12, 0.11, -0.86, 28.63, 5.46, -2.03
2510, -0.17, 0.08, -0.94, 21.42, -12.81, -7.77
2511, -0.21, 0.05, -1.01, 8.33, -11.13, -8.33
2512, -0.23, 0.10, -0.99, 4.76, 0.49, -10.92
2513, -0.20, 0.15, -0.96, 1.54, 1.33, -7.49
2514, -0.20, 0.13, -0.96, -0.77, -2.17, -3.15
2515, -0.21, 0.14, -0.96, -0.91, -0.70, 0.28
2516, -0.22, 0.14, -0.98, -1.75, 0.35, 3.64
2517, -0.21, 0.14, -0.96, -1.82, 3.36, 5.60
2518, -0.20, 0.12, -0.94, 1.89, 1.54, 1.54
2519, -0.20, 0.14, -0.95, 6.79, 4.34, 3.01
2520, -0.20, 0.13, -0.96, 7.77, 2.10, 2.52
2521, -0.21, 0.15, -0.97, 14.07, 6.44, 4.76
2522, -0.21, 0.17, -0.99, 21.70, 12.32, 6.09
2523, -0.22, 0.19, -1.00, 27.02, 20.51, 17.92
2524, -0.19, 0.09, -0.97, 17.57, 14.07, 22.96
2525, -0.16, 0.01, -0.95, 22.33, 12.04, 13.02
2526, -0.13, 0.00, -0.94, 18.20, 10.29, 7.00
2527, -0.12, -0.01, -0.94, 3.29, -6.44, -0.70
2528, -0.14, 0.02, -0.97, -1.26, -7.42, -10.57
2529, -0.16, 0.08, -0.99, -6.16, -8.82, -5.53
2530, -0.18, 0.11, -0.99, -7.28, -3.92, -3.78
2531, -0.18, 0.12, -1.00, -4.69, 0.98, -1.47
2532, -0.17, 0.12, -0.96, -2.24, 0.56, 4.13
2533, -0.18, 0.11, -0.97, -0.35, 1.19, 5.32
2534, -0.16, 0.08, -0.95, 2.73, 1.75, 3.99
2535, -0.15, 0.08, -0.96, 5.39, 2.03, 0.28
2536, -0.17, 0.10, -0.96, 13.02, 5.74, 1.26
2537, -0.19, 0.11, -0.96, 17.22, 6.58, 1.40
2538, -0.19, 0.13, -1.00, 25.97, 20.23, 7.00
2539, -0.18, 0.12, -0.97, 35.14, 26.46, 9.31
2540, -0.10, 0.06, -0.98, 29.47, 19.18, 18.83
2541, -0.11, -0.06, -0.98, 15.47, -0.70, 11.97
2542, -0.08, -0.12, -0.95, 4.13, -6.86, -2.45
2543, -0.10, -0.05, -0.94, -8.89, -17.15, -7.07
2544, -0.12, 0.00, -0.97, -20.02, -28.84, -7.21
2545, -0.15, 0.05, -1.03, -21.49, -20.09, -7.77
2546, -0.18, 0.09, -1.01, -20.93, -6.86, -0.84
2547, -0.16, 0.11, -0.98, -20.02, -5.60, 5.60
2548, -0.19, 0.11, -0.98, -13.79, -3.99, 9.73
2549, -0.15, 0.10, -0.94, -6.72, -3.85, 8.82
2550, -0.13, 0.07, -0.94, -0.49, -7.98, 1.82
2551, -0.17, 0.07, -0.96, 3.85, -7.07, -3.08
2552, -0.17, 0.06, -0.96, 3.15, -8.33, -3.43
2553, -0.17, 0.08, -0.99, 1.19, -6.44, -2.59
2554, -0.18, 0.11, -1.01, -4.55, -7.91, 0.98
2555, -0.23, 0.18, -1.00, 9.66, 17.43, 5.67
2556, -0.09, 0.09, -0.85, 26.95, 6.51, -0.77
2557, -0.18, -0.03, -1.03, 3.15, -22.33, -4.20
2558, -0.17, -0.05, -1.03, -6.65, 0.35, -9.66
2559, -0.16, 0.06, -0.92, -15.33, -8.75, -1.12
2560, -0.19, 0.11, -0.96, -17.08, -17.78, -3.15
2561, -0.17, 0.09, -0.99, -12.67, -13.86, -8.89
2562, -0.21, 0.10, -0.99, -8.75, -3.64, -2.10
2563, -0.20, 0.11, -0.97, -8.26, -4.76, 0.98
2564, -0.18, 0.09, -0.97, -8.12, -3.15, -2.87
2565, -0.20, 0.09, -0.95, -7.84, -4.41, -2.10
2566, -0.20, 0.11, -0.95, -11.34, -4.62, 2.31
2567, -0.21, 0.13, -0.98, -10.57, -6.72, 2.94
2568, -0.20, 0.13, -0.97, -7.70, -4.76, 3.29
2569, -0.20, 0.11, -0.94, -8.61, -2.94, 1.33
2570, -0.19, 0.08, -0.95, -6.37, -5.60, -3.92
2571, -0.22, 0.14, -1.01, -8.26, -2.17, -3.71
2572, -0.22, 0.16, -0.96, -5.53, 5.67, -1.47
2573, -0.23, 0.15, -0.92, -1.05, 4.83, 4.62
2574, -0.19, 0.08, -1.01, 1.47, -0.28, -19.32
2575, -0.19, 0.12, -0.99, 0.63, 13.23, -15.47
2576, -0.17, 0.14, -0.94, -1.82, 4.41, -16.38
2577, -0.16, 0.14, -0.92, -2.10, -3.36, -8.47
2578, -0.18, 0.12, -0.96, -2.31, -4.48, -3.22
2579, -0.21, 0.12, -0.97, -4.76, -1.75, 0.77
2580, -0.20, 0.14, -0.95, -2.66, 1.19, 7.35
2581, -0.19, 0.13, -0.96, -1.19, -2.38, 5.39
2582, -0.20, 0.14, -0.97, 1.47, 1.47, 4.41
2583, -0.19, 0.14, -0.95, 3.78, 1.96, 5.74
2584, -0.19, 0.13, -0.94, 7.28, -0.63, 5.11
2585, -0.20, 0.11, -0.95, 7.63, -2.38, 3.15
2586, -0.18, 0.11, -0.97, 9.10, -0.42, 1.75
2587, -0.17, 0.10, -0.97, 4.76, -1.19, -0.28
2588, -0.20, 0.11, -0.96, -0.91, -3.15, 0.70
2589, -0.19, 0.12, -0.95, 1.26, -1.75, -1.40
2590, -0.18, 0.11, -0.98, -0.21, -4.34, -1.68
2591, -0.20, 0.14, -0.99, -2.24, 1.26, 1.75
2592, -0.20, 0.14, -0.96, -2.31, 1.05, 10.36
2593, -0.19, 0.12, -0.97, -3.92, 0.00, 11.41
2594, -0.19, 0.09, -0.95, -6.86, -0.07, 6.37
2595, -0.19, 0.10, -0.96, -8.61, -2.10, 5.74
2596, -0.18, 0.14, -0.97, -8.26, -1.54, 2.73
2597, -0.18, 0.15, -0.96, -8.54, 0.42, 3.92
2598, -0.19, 0.14, -0.96, -6.51, 1.40, 4.76
2599, -0.19, 0.15, -0.96, -5.46, 0.77, 2.66
2600, -0.18, 0.16, -0.95, -3.85, 1.05, 0.84
2601, -0.18, 0.15, -0.95, 0.28, 1.12, -1.33
2602, -0.18, 0.16, -0.94, 1.47, -0.63, -1.19
2603, -0.19, 0.16, -0.96, 2.31, -0.42, -1.12
2604, -0.18, 0.14, -0.95, 3.78, 0.98, -1.05
2605, -0.18, 0.14, -0.96, 1.05, -0.98, -0.35
2606, -0.18, 0.14, -0.95, -1.05, -3.50, -0.28
2607, -0.19, 0.16, -0.96, -0.84, -2.87, 3.57
2608, -0.19, 0.15, -0.96, -2.94, -3.64, 5.39
2609, -0.18, 0.14, -0.98, -1.54, -1.05, 2.31
2610, -0.19, 0.16, -0.96, -4.34, -0.77, 7.00
2611, -0.17, 0.14, -0.95, -5.46, -3.99, 5.53
2612, -0.18, 0.16, -0.96, -5.18, -3.57, 3.15
2613, -0.20, 0.17, -0.96, -4.62, -1.26, 5.95
2614, -0.18, 0.17, -0.95, -2.80, -1.61, 5.95
2615, -0.19, 0.17, -0.96, -3.08, -1.89, 6.58
2616, -0.19, 0.16, -0.95, -2.03, -2.94, 4.62
2617, -0.19, 0.18, -0.96, -3.22, -2.10, 7.07
2618, -0.19, 0.17, -0.95, -3.71, -0.49, 7.91
2619, -0.18, 0.18, -0.95, -3.71, -1.40, 7.91
2620, -0.18, 0.17, -0.96, -3.36, -1.12, 7.28
2621, -0.19, 0.20, -0.95, -2.10, -1.47, 10.01
2622, -0.18, 0.18, -0.95, 0.21, 0.56, 11.83
2623, -0.17, 0.17, -0.94, -1.19, -0.84, 8.96
2624, -0.18, 0.17, -0.95, -0.42, -2.03, 6.30
2625, -0.19, 0.18, -0.95, 1.40, -1.54, 2.94
2626, -0.17, 0.18, -0.95, 3.15, -1.89, 0.21
2627, -0.18, 0.18, -0.94, 3.22, -3.08, 0.49
2628, -0.19, 0.18, -0.96, 3.57, -2.73, 0.00
2629, -0.18, 0.18, -0.96, 3.29, -2.73, 0.63
2630, -0.18, 0.18, -0.95, 1.33, -4.41, 2.10
2631, -0.19, 0.17, -0.95, 3.15, -5.04, 1.47
2632, -0.19, 0.17, -0.98, 0.91, -2.87, 1.40
2633, -0.19, 0.17, -0.95, -0.56, 1.26, 3.64
2634, -0.18, 0.16, -0.95, -0.49, -1.96, -0.91
2635, -0.18, 0.18, -0.97, 1.05, -0.56, -2.73
2636, -0.18, 0.20, -0.95, 5.25, 2.87, -1.12
2637, -0.18, 0.17, -0.93, 3.71, -3.36, -1.54
2638, -0.19, 0.16, -0.96, 3.57, -2.52, -1.89
2639, -0.20, 0.17, -0.96, 2.59, -3.64, -3.99
2640, -0.19, 0.17, -0.96, 2.10, -0.98, -4.06
2641, -0.19, 0.18, -0.95, 1.12, -0.49, -1.05
2642, -0.19, 0.17, -0.96, 1.12, -2.59, -0.98
2643, -0.19, 0.17, -0.95, 0.84, -1.61, -2.17
2644, -0.18, 0.17, -0.95, 1.19, -1.75, -2.17
2645, -0.19, 0.18, -0.96, 2.03, -2.03, -2.73
2646, -0.19, 0.17, -0.96, 2.73, 0.70, -0.56
2647, -0.19, 0.17, -0.95, 2.10, -3.36, -2.38
2648, -0.19, 0.17, -0.95, 3.36, -2.45, -3.01
2649, -0.19, 0.17, -0.96, 3.15, -4.13, -3.01
2650, -0.19, 0.16, -0.97, 1.47, -1.54, -2.66
2651, -0.19, 0.17, -0.96, 0.70, 1.75, -1.19
2652, -0.19, 0.19, -0.95, 0.84, 0.49, 0.49
2653, -0.19, 0.16, -0.94, 3.50, -1.96, 1.05
2654, -0.20, 0.17, -0.98, 3.15, 0.14, -0.98
2655, -0.19, 0.17, -0.95, 1.54, 4.41, 3.43
2656, -0.17, 0.15, -0.94, 1.96, -2.31, -1.40
2657, -0.19, 0.16, -0.96, 1.82, -1.19, -0.77
2658, -0.19, 0.16, -0.97, 1.47, 0.07, -2.03
2659, -0.19, 0.16, -0.96, 0.84, 3.71, 1.40
2660, -0.18, 0.16, -0.94, 0.84, 1.26, -0.42
2661, -0.18, 0.16, -0.96, 2.73, -0.07, -0.49
2662, -0.19, 0.15, -0.94, 0.07, -0.07, 0.84
2663, -0.19, 0.15, -0.94, -0.63, -2.03, 2.94
2664, -0.19, 0.14, -0.95, -1.89, -5.67, 4.41
2665, -0.19, 0.17, -0.97, -6.23, -5.25, 4.62
2666, -0.19, 0.18, -0.97, -6.72, -1.61, 5.25
2667, -0.18, 0.18, -0.95, -4.69, -1.89, 5.74
2668, -0.19, 0.18, -0.96, -1.54, -2.38, 3.85
2669, -0.19, 0.18, -0.96, 0.70, -3.01, 1.75
2670, -0.18, 0.18, -0.95, 2.87, -1.54, 2.66
2671, -0.19, 0.17, -0.95, 1.33, -2.59, 3.08
2672, -0.18, 0.17, -0.95, 0.63, -2.66, 3.08
2673, -0.19, 0.17, -0.95, -1.47, -4.55, 3.50
2674, -0.19, 0.17, -0.94, -0.49, -3.78, 6.37
2675, -0.19, 0.17, -0.97, -0.07, -4.27, 1.89
2676, -0.20, 0.18, -0.97, -3.01, 1.75, 7.70
2677, -0.19, 0.16, -0.94, -5.46, 0.35, 9.38
2678, -0.17, 0.17, -0.93, -3.71, -4.20, 3.15
2679, -0.19, 0.18, -0.96, -1.54, -4.48, 2.03
2680, -0.19, 0.19, -0.96, 0.35, -0.98, 1.96
2681, -0.18, 0.19, -0.94, -0.56, -2.45, 2.73
2682, -0.19, 0.18, -0.95, -0.56, -5.60, 0.56
2683, -0.20, 0.19, -0.96, 0.00, -3.43, 1.47
2684, -0.20, 0.19, -0.95, -0.49, -2.94, 3.64
2685, -0.20, 0.19, -0.95, -1.33, -4.13, 3.08
2686, -0.20, 0.19, -0.96, -2.10, -2.94, 2.66
2687, -0.20, 0.19, -0.95, -2.45, -1.40, 3.15
2688, -0.19, 0.19, -0.94, -0.98, -1.47, 1.75
2689, -0.20, 0.19, -0.95, -0.35, -1.26, 2.03
2690, -0.20, 0.19, -0.95, 0.84, 0.00, 1.68
2691, -0.20, 0.19, -0.95, 1.82, 0.00, -1.05
2692, -0.20, 0.20, -0.96, 2.24, 0.91, -1.33
2693, -0.18, 0.19, -0.94, 4.06, 1.75, 0.98
2694, -0.20, 0.18, -0.94, 2.38, -1.47, 0.84
2695, -0.20, 0.18, -0.96, 0.56, -1.12, -1.12
2696, -0.19, 0.19, -0.95, 1.05, -1.54, -1.19
2697, -0.20, 0.20, -0.97, 0.63, -1.05, 0.35
2698, -0.19, 0.20, -0.95, 1.05, 0.84, 0.14
2699, -0.18, 0.19, -0.94, 1.82, -1.12, 0.07
2700, -0.20, 0.19, -0.95, 1.75, -1.96, -0.56
2701, -0.19, 0.19, -0.96, 1.89, -0.91, -0.77
2702, -0.19, 0.18, -0.95, 1.68, -0.98, -1.26
2703, -0.19, 0.18, -0.96, 1.61, -0.49, -1.47
2704, -0.20, 0.18, -0.95, 0.56, -0.35, -1.89
2705, -0.19, 0.18, -0.95, 0.14, -0.07, -1.96
2706, -0.19, 0.19, -0.96, 1.33, 0.00, -1.61
2707, -0.19, 0.19, -0.95, -0.14, -0.35, -1.26
2708, -0.19, 0.18, -0.96, 0.21, 0.35, -2.17
2709, -0.18, 0.18, -0.94, 0.70, -0.42, -3.50
2710, -0.18, 0.18, -0.94, 1.54, -1.40, -5.81
2711, -0.19, 0.19, -0.96, 3.22, -1.82, -7.14
2712, -0.18, 0.16, -0.96, -1.33, -2.87, -9.66
2713, -0.18, 0.16, -0.93, -0.63, -2.80, -12.11
2714, -0.19, 0.17, -0.90, 0.77, -8.54, -14.42
2715, -0.22, 0.20, -0.98, 2.03, -8.89, -14.42
2716, -0.21, 0.19, -0.94, 5.60, -3.43, -13.93
2717, -0.20, 0.18, -0.92, 9.59, -6.02, -14.35
2718, -0.22, 0.19, -0.94, 10.64, -10.36, -14.56
2719, -0.23, 0.20, -0.96, 20.86, -7.00, -17.01
2720, -0.23, 0.20, -0.94, 19.74, -8.68, -7.77
2721, -0.25, 0.18, -0.99, 14.35, -9.03, 1.33
2722, -0.26, 0.17, -0.99, 23.94, 10.71, 6.44
2723, -0.23, 0.16, -0.92, 22.33, 6.44, 10.71
2724, -0.21, 0.11, -0.97, 19.04, 0.91, 6.93
2725, -0.23, 0.10, -0.97, 12.95, 2.45, 8.05
2726, -0.22, 0.09, -0.97, 9.52, 2.45, 9.24
2727, -0.19, 0.09, -0.94, 6.37, 0.28, 3.71
2728, -0.20, 0.09, -0.95, 3.36, -2.03, 1.26
2729, -0.20, 0.07, -0.96, -1.05, -5.88, -3.85
2730, -0.22, 0.07, -0.99, -6.79, -2.94, -6.16
2731, -0.19, 0.08, -0.95, -9.10, -1.12, -10.92
2732, -0.19, 0.10, -0.93, -8.19, -2.52, -14.07
2733, -0.20, 0.12, -0.97, -6.44, -6.72, -18.69
2734, -0.21, 0.16, -0.95, -2.80, -4.13, -20.09
2735, -0.22, 0.14, -0.93, 1.68, -5.67, -19.25
2736, -0.25, 0.15, -0.98, 8.05, -5.46, -16.24
2737, -0.24, 0.17, -0.97, 14.49, 6.30, -7.07
2738, -0.22, 0.15, -0.95, 16.80, 3.64, -2.73
2739, -0.23, 0.13, -0.96, 16.24, 3.57, 2.52
2740, -0.25, 0.07, -0.97, 5.81, -2.59, 4.41
2741, -0.25, 0.06, -1.01, -3.50, 2.59, 1.89
2742, -0.20, 0.08, -0.93, -2.73, 11.55, 3.08
2743, -0.18, 0.08, -0.92, -0.70, 1.47, -3.01
2744, -0.19, 0.06, -0.96, 0.14, -3.43, -12.46
2745, -0.21, 0.09, -0.95, 3.99, 1.33, -17.01
2746, -0.22, 0.09, -0.94, 6.16, 0.84, -12.18
2747, -0.23, 0.10, -0.97, 11.62, 4.97, -14.28
2748, -0.21, 0.10, -0.96, 13.02, 8.47, -15.05
2749, -0.20, 0.09, -0.93, 15.47, 5.25, -16.52
2750, -0.20, 0.04, -0.96, 12.25, -1.33, -15.47
2751, -0.21, 0.08, -0.97, 17.92, 4.41, -12.95
2752, -0.20, 0.08, -0.95, 11.34, 0.42, -4.62
2753, -0.22, 0.07, -1.00, 14.70, 1.54, -3.92
2754, -0.23, 0.09, -0.98, 20.86, 12.60, 1.82
2755, -0.18, 0.01, -0.96, 15.68, 1.75, 2.52
2756, -0.20, 0.03, -0.98, 20.02, 10.85, -4.41
2757, -0.18, -0.02, -0.95, 10.36, 2.24, 1.89
2758, -0.20, -0.03, -1.00, 5.39, 1.05, -4.83
2759, -0.16, -0.01, -0.96, 10.36, 12.39, -12.11
2760, -0.17, 0.01, -0.91, 6.86, -1.68, -6.23
2761, -0.18, -0.05, -1.00, 0.14, -12.95, -11.48
2762, -0.22, 0.00, -1.02, -5.53, 1.96, -11.13
2763, -0.17, -0.00, -0.96, -7.35, 2.73, -10.85
2764, -0.13, -0.01, -0.98, -4.27, 3.64, -22.96
2765, -0.16, 0.02, -0.94, 10.08, 7.07, -31.01
2766, -0.18, 0.04, -0.94, 13.58, 4.76, -30.38
2767, -0.18, 0.00, -0.95, 18.69, -2.10, -25.97
2768, -0.19, -0.03, -0.97, 16.52, 17.71, -30.17
2769, -0.20, -0.03, -1.01, 16.80, 3.57, -23.59
2770, -0.22, 0.08, -0.98, 14.91, 10.57, -5.88
2771, -0.20, -0.00, -1.00, 0.49, -7.14, 3.99
2772, -0.21, -0.05, -1.00, -5.81, 4.76, 13.65
2773, -0.15, -0.12, -0.94, -20.09, -16.52, 3.29
2774, -0.18, -0.01, -1.04, -13.58, 0.63, -4.34
2775, -0.16, 0.08, -0.90, -4.20, 6.09, 7.56
2776, -0.17, -0.00, -0.97, -2.59, -11.41, 5.04
2777, -0.20, 0.02, -0.98, 11.27, 4.48, 5.04
2778, -0.15, 0.04, -0.94, 19.04, 0.28, 6.65
2779, -0.17, -0.01, -0.95, 18.34, -4.41, 8.89
2780, -0.18, -0.05, -0.98, 17.08, -3.50, 6.51
2781, -0.17, -0.05, -0.98, 14.91, 6.93, -3.29
2782, -0.24, 0.02, -1.01, 21.00, 17.78, 6.16
2783, -0.13, 0.02, -1.03, 44.38, 40.95, 19.04
2784, -0.20, 0.02, -0.92, 28.00, 20.93, 34.58
2785, -0.13, -0.27, -1.01, 5.25, -12.46, 16.03
2786, -0.16, -0.20, -0.94, -11.41, -1.26, 16.94
2787, -0.12, -0.12, -1.02, -41.44, -29.47, 18.62
2788, -0.16, -0.02, -0.99, -41.09, -4.34, 20.86
2789, -0.14, -0.04, -0.90, -39.48, -20.37, 16.10
2790, -0.14, 0.03, -0.96, -29.54, -24.43, 15.68
2791, -0.16, 0.00, -0.95, -25.55, -24.64, 12.11
2792, -0.20, 0.02, -1.00, -18.13, -20.23, 8.75
2793, -0.19, 0.05, -0.97, -10.50, -6.93, 3.85
2794, -0.19, 0.02, -0.94, -6.65, -10.29, 0.56
2795, -0.20, 0.02, -0.97, -6.09, -12.67, -1.33
2796, -0.21, 0.04, -0.98, -0.63, -8.40, -5.81
2797, -0.22, 0.05, -0.95, 0.63, -7.21, -0.91
2798, -0.23, 0.03, -0.98, -7.63, -14.14, 0.98
2799, -0.23, 0.02, -0.99, -10.36, -5.67, 2.24
2800, -0.22, 0.02, -0.95, -12.32, -4.34, -1.47
2801, -0.22, 0.04, -0.95, -8.12, -4.48, -6.02
2802, -0.21, 0.06, -0.94, -3.01, -2.94, -8.05
2803, -0.23, 0.05, -0.95, 2.38, -2.31, -9.87
2804, -0.21, 0.06, -0.98, 3.43, -3.22, -16.45
2805, -0.21, 0.08, -0.97, 6.02, -0.35, -13.79
2806, -0.21, 0.09, -0.96, 13.51, 2.94, -10.64
2807, -0.25, 0.05, -0.95, 11.13, -4.34, -2.31
2808, -0.27, 0.04, -1.02, 6.58, 0.21, 0.28
2809, -0.24, 0.02, -0.97, 4.76, 10.57, 2.52
2810, -0.24, 0.02, -0.96, 1.05, 7.35, 4.62
2811, -0.21, 0.01, -0.95, 1.96, 8.54, 2.73
2812, -0.20, 0.03, -0.94, 4.20, 2.80, 0.91
2813, -0.20, 0.03, -0.96, 4.27, -0.63, -1.05
2814, -0.23, 0.04, -0.99, 1.33, -0.77, 2.31
2815, -0.21, 0.02, -0.97, 0.63, 2.03, 3.22
2816, -0.21, 0.03, -0.96, 1.68, 3.15, 3.22
2817, -0.20, 0.01, -0.96, -0.14, -0.56, 2.17
2818, -0.21, 0.02, -0.96, -0.63, 0.63, 0.91
2819, -0.20, 0.02, -0.97, 0.42, -0.56, 0.70
2820, -0.21, 0.01, -0.95, -0.21, -0.49, 0.21
2821, -0.20, 0.01, -0.96, -0.98, -2.73, -1.68
2822, -0.20, 0.02, -0.96, 0.21, -4.41, -4.55
2823, -0.21, 0.02, -0.96, 2.52, -4.27, -7.28
2824, -0.20, 0.02, -0.96, 5.25, -5.11, -8.47
2825, -0.19, 0.00, -0.97, 3.92, -6.02, -21.98
2826, -0.20, -0.02, -0.95, 1.47, -6.86, -31.78
2827, -0.21, 0.04, -0.98, 1.47, -8.05, -17.71
2828, -0.22, 0.08, -0.96, 2.31, -0.84, -7.42
2829, -0.27, 0.04, -1.02, -2.73, -9.24, 0.91
2830, -0.24, 0.05, -1.00, -2.66, 6.51, 3.92
2831, -0.25, 0.03, -0.96, -9.45, 0.28, 10.57
2832, -0.24, 0.03, -0.98, -10.85, 4.41, 11.34
2833, -0.22, 0.03, -0.94, -6.51, 7.84, 14.07
2834, -0.19, -0.01, -0.94, -13.37, -5.18, 11.76
2835, -0.21, 0.01, -1.00, -15.89, -5.25, 7.42
2836, -0.19, 0.05, -0.95, -14.84, 3.29, 4.20
2837, -0.20, 0.06, -0.94, -13.86, -4.20, 6.02
2838, -0.21, 0.05, -0.95, -8.05, -1.54, -0.21
2839, -0.20, 0.05, -0.94, -3.08, -1.54, -3.99
2840, -0.22, 0.07, -0.94, -1.75, -5.46, -4.34
2841, -0.22, 0.05, -0.96, 1.05, -2.66, -8.82
2842, -0.22, 0.07, -0.95, 2.73, -2.94, -12.04
2843, -0.21, 0.05, -0.96, 3.99, -2.24, -10.64
2844, -0.22, 0.04, -0.97, -2.03, -8.33, -19.53
2845, -0.20, 0.07, -0.97, 1.61, 4.48, -22.19
2846, -0.22, 0.13, -0.91, 7.98, -6.30, -8.40
2847, -0.25, 0.08, -0.98, 4.20, -9.87, 3.92
2848, -0.28, 0.07, -1.03, -1.05, -3.92, 11.76
2849, -0.26, -0.01, -0.98, -10.78, 0.28, 10.08
2850, -0.24, 0.08, -0.94, -10.85, 3.29, 14.00
2851, -0.22, 0.07, -0.93, -16.66, -9.03, 20.02
2852, -0.23, 0.08, -0.97, -14.91, -7.91, 14.42
2853, -0.22, 0.09, -0.95, -12.32, -6.44, 13.58
2854, -0.23, 0.08, -0.95, -15.26, -10.36, 15.82
2855, -0.23, 0.08, -0.95, -9.03, -4.27, 11.55
2856, -0.22, 0.09, -0.93, -4.20, -4.34, 3.99
2857, -0.22, 0.10, -0.94, 1.82, -3.78, -1.12
2858, -0.23, 0.09, -0.96, -1.12, -5.53, -2.24
2859, -0.26, 0.10, -0.96, 2.52, -0.77, -3.92
2860, -0.26, 0.17, -0.96, 4.69, 0.42, 2.52
2861, -0.24, 0.12, -0.98, 1.19, 0.56, 5.11
2862, -0.26, 0.10, -0.96, 3.85, 3.50, 4.13
2863, -0.24, 0.12, -0.97, 5.04, 5.53, 4.76
2864, -0.22, 0.10, -0.95, 5.32, 4.62, 8.05
2865, -0.23, 0.08, -0.94, 4.48, 0.49, 5.95
2866, -0.24, 0.08, -0.97, 0.84, 1.05, 5.32
2867, -0.23, 0.07, -0.96, -2.17, 3.85, 4.06
2868, -0.22, 0.09, -0.94, -3.57, 0.91, 1.05
2869, -0.22, 0.10, -0.95, -1.82, -2.10, -1.33
2870, -0.22, 0.09, -0.95, -1.12, -0.77, 0.35
2871, -0.22, 0.10, -0.94, 1.89, -3.36, -1.68
2872, -0.22, 0.11, -0.96, 3.64, -1.05, -2.73
2873, -0.23, 0.12, -0.96, 5.11, -0.21, -3.36
2874, -0.23, 0.09, -0.96, 5.25, 1.19, -4.62
2875, -0.22, 0.11, -0.95, 9.87, 2.94, -7.63
2876, -0.23, 0.12, -0.96, 9.52, -2.17, -5.04
2877, -0.23, 0.08, -0.97, 4.48, -1.82, -1.12
2878, -0.23, 0.09, -0.97, 5.32, 1.75, -0.28
2879, -0.23, 0.09, -0.97, 3.64, 0.98, 2.94
2880, -0.24, 0.07, -0.96, 1.26, 1.61, 6.23
2881, -0.23, 0.07, -0.96, -1.26, 1.19, 5.81
2882, -0.22, 0.09, -0.95, -1.75, 3.43, 6.86
2883, -0.22, 0.08, -0.95, -2.31, 0.84, 4.83
2884, -0.21, 0.08, -0.96, -2.80, -0.49, 3.50
2885, -0.22, 0.09, -0.96, -1.96, 0.21, 4.06
2886, -0.21, 0.08, -0.95, -0.42, -1.40, 2.31
2887, -0.22, 0.08, -0.96, 0.35, -0.42, 2.31
2888, -0.21, 0.09, -0.96, -0.42, 0.28, -1.26
2889, -0.21, 0.11, -0.96, 0.28, -1.61, -1.61
2890, -0.22, 0.08, -0.96, -0.28, -1.61, 0.00
2891, -0.21, 0.10, -0.95, 2.59, 0.00, -1.47
2892, -0.22, 0.10, -0.95, 2.03, -4.20, -0.49
2893, -0.22, 0.10, -0.98, -2.03, -5.74, 2.73
2894, -0.24, 0.10, -0.98, -3.99, -1.54, 8.12
2895, -0.24, 0.11, -0.96, -7.14, -2.31, 15.05
2896, -0.23, 0.08, -0.97, -11.90, -3.99, 16.31
2897, -0.22, 0.09, -0.96, -12.25, -1.33, 14.07
2898, -0.21, 0.11, -0.94, -14.42, -4.48, 13.51
2899, -0.22, 0.12, -0.96, -18.27, -8.05, 17.50
2900, -0.24, 0.13, -0.97, -18.27, -2.59, 18.97
2901, -0.24, 0.15, -0.95, -16.87, 0.63, 20.72
2902, -0.22, 0.16, -0.94, -12.74, 3.92, 17.99
2903, -0.20, 0.16, -0.92, -7.49, 2.73, 15.61
2904, -0.20, 0.15, -0.94, -2.87, -2.31, 7.63
2905, -0.21, 0.17, -0.95, 2.03, 2.87, 5.88
2906, -0.21, 0.19, -0.93, 7.84, 2.73, 6.79
2907, -0.19, 0.17, -0.94, 11.27, -0.91, 2.24
2908, -0.20, 0.15, -0.95, 13.93, -2.17, -2.10
2909, -0.20, 0.12, -0.96, 10.08, -6.30, -1.33
2910, -0.22, 0.13, -0.99, 3.15, -3.85, 0.98
2911, -0.22, 0.14, -0.97, -2.03, -1.19, 3.01
2912, -0.21, 0.14, -0.96, -6.23, -2.87, 5.74
2913, -0.19, 0.12, -0.95, -7.21, -3.64, 2.59
2914, -0.23, 0.15, -0.95, -13.79, -7.98, 6.23
2915, -0.23, 0.15, -0.98, -20.09, -6.23, 11.13
2916, -0.24, 0.18, -0.97, -20.51, 2.31, 14.49
2917, -0.22, 0.19, -0.93, -17.92, 4.76, 16.45
2918, -0.22, 0.20, -0.93, -12.18, 3.71, 12.81
2919, -0.20, 0.19, -0.94, -5.04, 2.87, 6.86
2920, -0.21, 0.22, -0.97, -3.01, 1.40, 2.10
2921, -0.19, 0.20, -0.96, -8.68, 4.34, 2.52
2922, -0.23, 0.20, -0.89, -2.03, 10.36, 9.03
2923, -0.18, 0.20, -0.93, 6.58, -0.42, -11.83
2924, -0.19, 0.19, -0.97, 4.27, 1.12, -15.61
2925, -0.17, 0.15, -0.93, 6.51, -0.35, -22.61
2926, -0.19, 0.19, -0.94, 7.07, -2.24, -19.39
2927, -0.20, 0.20, -0.95, 0.56, -5.11, -12.32
2928, -0.22, 0.19, -0.95, -1.26, -3.71, -5.46
2929, -0.23, 0.20, -0.96, -6.44, -0.91, 3.36
2930, -0.20, 0.19, -0.94, -9.66, -3.01, 6.09
2931, -0.21, 0.21, -0.94, -8.61, -0.70, 11.48
2932, -0.22, 0.22, -0.95, -8.61, -2.52, 17.71
2933, -0.20, 0.22, -0.95, -5.81, 1.33, 13.58
2934, -0.19, 0.21, -0.94, -3.57, 2.73, 14.91
2935, -0.20, 0.21, -0.93, -2.59, 1.75, 11.97
2936, -0.18, 0.22, -0.93, -0.14, -1.12, 9.17
2937, -0.19, 0.21, -0.94, 1.68, -2.87, 3.43
2938, -0.19, 0.21, -0.96, 0.21, -2.80, 3.64
2939, -0.21, 0.23, -0.94, 1.82, 0.14, 4.62
2940, -0.18, 0.21, -0.93, 2.73, -1.12, 3.43
2941, -0.20, 0.22, -0.94, 2.94, -2.73, 3.08
2942, -0.21, 0.23, -0.97, -0.35, -2.38, 11.27
2943, -0.19, 0.19, -0.95, -1.96, 2.38, 10.15
2944, -0.19, 0.19, -0.92, -1.47, 2.52, 6.30
2945, -0.18, 0.20, -0.94, -3.50, -1.89, 6.37
2946, -0.18, 0.19, -0.95, -2.87, -1.33, 2.17
2947, -0.18, 0.20, -0.95, -5.04, 0.70, -1.82
2948, -0.18, 0.22, -0.94, -5.60, 0.35, -3.36
2949, -0.17, 0.22, -0.94, -5.32, -2.94, -8.05
2950, -0.19, 0.24, -0.94, -4.69, -2.52, -8.82
2951, -0.19, 0.26, -0.95, -3.85, -1.89, -7.49
2952, -0.20, 0.26, -0.94, -1.96, 0.21, -3.50
2953, -0.20, 0.26, -0.94, -1.05, -1.19, -1.68
2954, -0.20, 0.25, -0.94, 0.63, 0.42, -1.12
2955, -0.20, 0.24, -0.93, 0.56, -0.35, -0.21
2956, -0.20, 0.23, -0.93, 1.40, 0.63, 2.24
2957, -0.19, 0.22, -0.93, 1.54, -1.05, 2.24
2958, -0.20, 0.22, -0.93, -0.98, -2.59, 2.10
2959, -0.21, 0.24, -0.95, -0.77, -1.54, 3.92
2960, -0.19, 0.24, -0.95, 0.21, 17.78, 3.01
2961, -0.20, 0.25, -0.94, 2.59, -0.28, 3.85
2962, -0.20, 0.23, -0.94, 1.47, 1.47, 6.37
2963, -0.18, 0.23, -0.93, 0.00, 2.10, 6.86
2964, -0.18, 0.24, -0.93, 3.64, 3.36, 9.03
2965, -0.18, 0.24, -0.94, 5.81, 2.52, 6.37
2966, -0.17, 0.23, -0.92, 11.83, 3.43, 3.08
2967, -0.17, 0.24, -0.94, 12.74, -4.69, 1.19
2968, -0.19, 0.23, -0.96, 18.27, 6.86, 3.22
2969, -0.19, 0.24, -0.95, 20.09, 4.20, 2.17
2970, -0.17, 0.22, -0.97, 17.71, 5.25, 3.01
2971, -0.16, 0.19, -0.91, 20.37, 2.24, 7.21
2972, -0.15, 0.14, -0.96, 14.35, -8.68, -0.56
2973, -0.17, 0.12, -0.97, 4.20, -5.60, -0.35
2974, -0.18, 0.18, -0.96, -4.20, -3.29, -0.35
2975, -0.18, 0.21, -0.94, -5.46, -8.68, 0.49
2976, -0.18, 0.19, -0.97, -3.92, -3.15, 3.08
2977, -0.19, 0.21, -0.96, -6.58, -2.94, 1.54
2978, -0.18, 0.21, -0.92, -5.18, -4.34, 1.33
2979, -0.17, 0.19, -0.97, -6.51, -4.55, -1.19
2980, -0.17, 0.20, -0.93, -6.02, -6.51, -3.01
2981, -0.19, 0.21, -0.96, -3.29, -5.25, -0.70
2982, -0.19, 0.22, -0.95, -1.40, -4.62, 1.26
2983, -0.18, 0.21, -0.95, -1.40, -5.74, -1.40
2984, -0.20, 0.22, -0.94, 0.77, -3.43, -0.98
2985, -0.19, 0.21, -0.95, 0.63, -4.97, 0.56
2986, -0.19, 0.21, -0.96, 1.89, -0.91, 0.42
2987, -0.20, 0.21, -0.94, 0.07, -1.54, 3.08
2988, -0.19, 0.20, -0.94, -0.35, 0.07, 3.29
2989, -0.19, 0.21, -0.94, -0.28, -3.36, 0.49
2990, -0.19, 0.21, -0.97, -0.98, -1.68, -0.49
2991, -0.18, 0.21, -0.93, 1.40, -1.47, -1.68
2992, -0.18, 0.20, -0.93, 2.10, -3.36, -5.04
2993, -0.20, 0.21, -0.95, 0.28, -3.43, -3.29
2994, -0.20, 0.21, -0.96, 0.14, -0.49, -0.42
2995, -0.19, 0.22, -0.94, -0.14, -0.35, -0.49
2996, -0.20, 0.21, -0.94, -0.35, -3.01, 0.56
2997, -0.21, 0.21, -0.96, -0.63, -0.07, 1.89
2998, -0.19, 0.22, -0.95, -0.70, 3.15, 3.99
2999, -0.18, 0.22, -0.93, -0.49, -1.05, 1.26
3000, -0.19, 0.21, -0.94, 0.21, -2.24, 1.33
3001, -0.18, 0.21, -0.95, 1.54, -1.19, -0.77
3002, -0.19, 0.20, -0.94, 0.00, -0.35, 0.21
3003, -0.19, 0.22, -0.94, 0.14, -0.98, -0.49
3004, -0.19, 0.21, -0.94, 0.98, -1.96, -2.24
3005, -0.20, 0.22, -0.96, 0.42, -0.63, -1.47
3006, -0.19, 0.22, -0.93, 2.38, 0.07, -1.89
3007, -0.19, 0.21, -0.95, 0.42, -1.47, -1.82
3008, -0.20, 0.21, -0.95, 0.70, -0.21, -3.43
3009, -0.19, 0.22, -0.94, 1.61, -0.28, -2.94
3010, -0.19, 0.21, -0.94, 1.61, -1.05, -2.94
3011, -0.19, 0.21, -0.94, 2.10, -0.84, -3.08
3012, -0.19, 0.20, -0.94, 0.98, -0.35, -1.40
3013, -0.19, 0.20, -0.93, -1.12, -1.40, -0.98
3014, -0.20, 0.19, -0.94, -2.45, -4.48, 0.35
3015, -0.21, 0.20, -0.95, -3.64, -3.36, -0.35
3016, -0.21, 0.22, -0.95, -3.85, -1.68, -0.28
3017, -0.18, 0.23, -0.94, -3.92, -3.29, -0.77
3018, -0.19, 0.23, -0.94, -0.28, -5.95, -0.84
3019, -0.20, 0.21, -0.96, -2.38, -4.76, -2.52
3020, -0.19, 0.21, -0.93, -0.42, -3.22, -6.30
3021, -0.20, 0.23, -0.93, 1.96, -5.81, -6.86
3022, -0.21, 0.24, -0.95, 1.40, -6.51, -2.94
3023, -0.20, 0.22, -0.94, 5.95, -3.57, -4.20
3024, -0.21, 0.22, -0.92, 8.68, -4.27, -4.13
3025, -0.20, 0.19, -0.94, 6.65, -9.17, -7.35
3026, -0.21, 0.19, -0.95, 6.51, -5.46, -9.52
3027, -0.21, 0.22, -0.94, 10.64, -4.62, -12.46
3028, -0.22, 0.22, -0.93, 9.52, -8.19, -3.78
3029, -0.24, 0.19, -0.95, 7.00, -7.28, -3.29
3030, -0.23, 0.17, -0.94, 8.19, -5.74, -9.31
3031, -0.25, 0.21, -0.96, 7.49, -1.61, -5.32
3032, -0.24, 0.20, -0.94, 6.09, -1.26, 1.05
3033, -0.23, 0.19, -0.93, 12.88, -0.28, 0.70
3034, -0.23, 0.20, -0.96, 15.82, 0.21, -2.03
3035, -0.23, 0.19, -0.96, 11.97, -1.12, 2.45
3036, -0.22, 0.16, -0.96, 15.33, 3.01, -1.89
3037, -0.22, 0.15, -0.93, 12.74, -0.42, -3.08
3038, -0.23, 0.14, -0.96, 10.78, -0.21, -5.39
3039, -0.22, 0.14, -0.95, 9.24, 1.19, -5.25
3040, -0.23, 0.14, -0.95, 5.46, -0.63, -4.41
3041, -0.24, 0.14, -0.97, 3.50, 0.91, -3.92
3042, -0.24, 0.16, -0.95, 4.13, 2.45, -0.21
3043, -0.22, 0.15, -0.96, 3.50, 1.96, 1.61
3044, -0.21, 0.13, -0.94, 4.34, 2.31, -0.70
3045, -0.22, 0.12, -0.94, 4.55, -0.07, -4.27
3046, -0.21, 0.14, -0.94, 8.19, 2.03, -5.67
3047, -0.21, 0.14, -0.94, 15.12, 0.21, -9.17
3048, -0.21, 0.13, -0.95, 20.72, 0.91, -14.70
3049, -0.22, 0.13, -0.96, 25.34, 3.08, -18.62
3050, -0.21, 0.11, -0.95, 25.76, 2.59, -15.96
3051, -0.22, 0.09, -0.96, 25.06, -1.47, -18.34
3052, -0.23, 0.10, -0.98, 28.14, 7.21, -13.44
3053, -0.23, 0.09, -0.97, 27.16, 9.94, -10.22
3054, -0.22, 0.07, -0.98, 28.14, 14.49, -10.78
3055, -0.22, 0.05, -0.97, 23.59, 10.64, -3.50
3056, -0.22, 0.04, -0.96, 25.41, 14.42, 2.10
3057, -0.21, 0.03, -0.95, 17.99, 5.95, 8.05
3058, -0.20, -0.02, -0.99, 11.90, 4.55, 10.08
3059, -0.18, -0.03, -0.97, 7.77, 3.92, 1.54
3060, -0.16, -0.03, -0.95, 7.84, 3.99, -3.92
3061, -0.18, 0.02, -0.94, 7.28, -3.29, 1.68
3062, -0.19, -0.00, -0.98, 8.12, -5.25, -0.42
3063, -0.18, -0.02, -0.96, 10.22, 2.24, -5.39
3064, -0.19, 0.01, -0.96, 10.92, 2.94, -5.81
3065, -0.18, 0.01, -0.99, 5.46, 2.03, -1.05
3066, -0.18, 0.01, -0.99, 5.95, 4.69, -4.62
3067, -0.19, 0.02, -0.96, 17.15, 7.56, -4.27
3068, -0.19, 0.06, -0.91, 12.04, -1.96, 15.26
3069, -0.23, -0.11, -1.02, -12.32, -22.47, 17.85
3070, -0.21, -0.11, -1.06, -22.47, -1.40, 2.03
3071, -0.16, 0.06, -0.95, -6.02, 12.25, -7.28
3072, -0.12, 0.10, -0.89, 8.33, -1.47, -2.73
3073, -0.19, 0.02, -1.01, 9.17, -11.62, 0.14
3074, -0.21, -0.06, -1.02, 4.55, 0.56, -6.44
3075, -0.18, -0.02, -0.97, 3.78, 12.04, -13.93
3076, -0.16, 0.01, -0.91, 9.03, 7.91, -13.09
3077, -0.17, -0.02, -0.97, 8.12, -2.45, -10.08
3078, -0.17, -0.02, -0.98, 15.82, 9.59, -20.51
3079, -0.17, -0.01, -0.94, 12.53, 3.29, -16.38
3080, -0.19, -0.01, -0.98, 8.33, -0.84, -2.80
3081, -0.20, -0.04, -0.99, -3.43, -5.95, 4.48
3082, -0.18, -0.05, -0.96, -9.24, -2.80, 13.09
3083, -0.18, -0.06, -0.94, -17.01, -12.74, 14.14
3084, -0.18, -0.00, -1.02, -23.80, -17.15, 16.17
3085, -0.20, 0.07, -0.98, -7.70, 6.37, 10.85
3086, -0.15, 0.02, -0.97, 5.81, 2.80, 3.99
3087, -0.14, -0.07, -0.93, 11.48, -0.63, -6.02
3088, -0.18, -0.04, -0.97, 7.63, -7.63, -7.42
3089, -0.19, -0.01, -0.98, 3.85, -2.03, -6.86
3090, -0.18, -0.00, -0.97, 3.01, -3.43, -10.50
3091, -0.17, -0.04, -0.97, 6.16, 2.45, -11.90
3092, -0.16, -0.04, -0.96, 10.29, 3.85, -19.74
3093, -0.14, -0.02, -0.94, 14.63, -0.42, -23.80
3094, -0.20, 0.01, -0.99, 17.92, 2.73, -12.60
3095, -0.20, -0.02, -1.00, 6.93, -0.28, 0.98
3096, -0.20, -0.09, -0.99, 4.76, 1.68, 0.77
3097, -0.13, -0.08, -0.93, 1.68, 0.21, 0.70
3098, -0.20, -0.10, -0.93, -13.02, -21.84, 8.61
3099, -0.22, -0.05, -1.07, -26.39, -20.65, 7.49
3100, -0.21, 0.04, -0.99, -17.71, 6.58, 5.81
3101, -0.18, 0.04, -0.92, -2.03, 2.94, 7.98
3102, -0.16, -0.03, -0.94, 4.13, -5.74, 1.89
3103, -0.19, -0.03, -0.96, 8.47, -6.51, -0.07
3104, -0.19, -0.02, -1.00, 6.02, -7.07, 2.03
3105, -0.20, -0.03, -1.00, -2.45, -6.65, 4.90
3106, -0.20, -0.02, -0.99, -1.33, -0.77, -1.40
3107, -0.16, -0.02, -0.94, 2.87, 0.00, -4.62
3108, -0.19, -0.01, -0.96, 0.28, -9.52, 0.00
3109, -0.18, -0.06, -0.98, 4.34, -5.18, -8.75
3110, -0.17, -0.01, -0.93, 6.93, -5.46, -16.03
3111, -0.19, -0.04, -0.96, 8.19, -6.09, -15.89
3112, -0.20, -0.05, -0.98, 16.59, -0.98, -25.69
3113, -0.18, -0.02, -0.99, 20.65, 11.27, -18.48
3114, -0.22, -0.04, -0.94, 14.63, -8.12, -14.70
3115, -0.26, -0.04, -1.05, 3.92, -3.15, -1.68
3116, -0.27, -0.08, -0.98, -9.31, 4.76, 4.48
3117, -0.18, -0.09, -0.90, 4.27, 15.40, 2.73
3118, -0.22, -0.09, -0.81, -8.54, -24.92, 19.32
3119, -0.24, -0.09, -1.09, -24.92, -35.56, 16.45
3120, -0.24, -0.02, -1.07, -26.11, 5.81, 9.38
3121, -0.20, 0.02, -0.93, -22.12, 3.78, 13.44
3122, -0.20, 0.01, -0.95, -19.46, -7.63, 15.89
3123, -0.19, 0.00, -0.96, -14.21, -9.80, 10.57
3124, -0.22, 0.02, -0.96, -7.14, -5.32, 7.70
3125, -0.21, 0.01, -0.98, -6.09, -3.50, 4.97
3126, -0.21, 0.01, -0.96, -0.70, 0.56, 2.10
3127, -0.19, 0.01, -0.93, 6.02, 1.75, -1.54
3128, -0.21, -0.00, -0.94, 2.80, -8.05, 0.70
3129, -0.23, -0.03, -0.98, 4.34, -5.39, -5.81
3130, -0.23, -0.02, -0.95, 0.21, -4.69, -1.05
3131, -0.25, 0.01, -1.00, -4.20, -5.39, -1.12
3132, -0.24, 0.02, -0.97, -5.04, -0.14, 0.35
3133, -0.22, 0.01, -0.94, 0.21, 1.47, -4.13
3134, -0.23, 0.02, -0.95, 5.32, 0.91, -2.87
3135, -0.23, -0.02, -0.99, 1.19, -0.28, -9.87
3136, -0.22, -0.01, -0.99, -1.40, 5.53, -20.37
3137, -0.19, 0.01, -0.94, 3.08, 4.76, -19.39
3138, -0.25, 0.04, -0.81, 5.67, -13.30, 3.71
3139, -0.27, 0.01, -1.12, -2.94, -29.61, 0.07
3140, -0.27, 0.03, -1.05, -5.67, 12.60, 2.94
3141, -0.25, 0.03, -0.96, -9.94, 3.57, 12.39
3142, -0.21, 0.01, -0.97, -3.08, 10.71, 7.00
3143, -0.20, 0.02, -0.90, 2.17, 3.01, 2.17
3144, -0.22, 0.02, -0.95, 7.63, 0.98, 5.67
3145, -0.22, -0.02, -0.97, 4.90, -3.29, 4.13
3146, -0.23, -0.01, -0.98, 6.16, 4.34, 1.19
3147, -0.21, 0.02, -0.95, 8.96, 4.90, -0.84
3148, -0.21, -0.00, -0.97, 9.38, 0.56, -5.46
3149, -0.22, -0.02, -0.99, 10.92, 6.79, -1.47
3150, -0.21, 0.00, -0.94, 7.00, -0.77, 2.24
3151, -0.23, -0.01, -0.99, 5.88, -2.17, 2.73
3152, -0.23, -0.01, -0.99, 2.66, 1.12, 6.65
3153, -0.22, 0.00, -0.95, 6.93, 8.33, 6.37
3154, -0.19, -0.02, -0.94, 10.15, 0.42, 3.99
3155, -0.22, -0.00, -0.98, 10.43, 2.80, 6.93
3156, -0.22, -0.02, -0.97, 6.09, 3.64, 10.43
3157, -0.21, -0.04, -0.95, 6.16, 7.14, 9.31
3158, -0.20, -0.05, -0.95, 3.01, 2.10, 8.05
3159, -0.19, -0.03, -0.99, 1.05, 1.54, 3.08
3160, -0.20, -0.02, -0.96, 1.75, 3.22, 1.68
3161, -0.20, -0.02, -0.99, 4.27, 2.94, -3.50
3162, -0.17, -0.03, -0.97, 11.55, 8.54, -8.47
3163, -0.15, -0.04, -0.93, 14.42, 6.44, -14.77
3164, -0.21, -0.04, -0.96, 7.42, -5.25, -1.33
3165, -0.22, -0.04, -1.01, -0.91, -5.11, 1.19
3166, -0.18, -0.03, -0.98, -4.41, 1.82, 2.38
3167, -0.21, -0.08, -0.95, -21.63, -15.89, 9.17
3168, -0.19, -0.07, -0.96, -18.55, -8.33, -4.48
3169, -0.20, 0.04, -0.97, -7.70, -1.26, -5.74
3170, -0.18, 0.01, -0.95, -0.49, -1.33, -2.10
3171, -0.19, -0.01, -0.96, 5.39, -6.86, -4.69
3172, -0.22, -0.02, -0.99, 6.09, -5.67, -6.44
3173, -0.20, -0.02, -0.99, 1.82, -1.75, -8.68
3174, -0.20, -0.02, -0.98, 0.91, 0.35, -14.21
3175, -0.19, -0.06, -0.94, 4.06, 4.34, -14.91
3176, -0.19, -0.04, -0.96, 3.01, -3.43, -17.29
3177, -0.20, -0.03, -0.95, 7.07, 0.63, -17.15
3178, -0.20, -0.05, -0.97, 6.79, -1.68, -21.91
3179, -0.21, -0.02, -0.99, 1.26, -2.59, -16.10
3180, -0.23, -0.00, -0.99, 3.57, 3.99, -10.85
3181, -0.18, 0.01, -0.95, 7.56, 4.13, -4.48
3182, -0.21, -0.06, -0.98, -1.82, -14.00, -1.19
3183, -0.21, -0.08, -0.99, -7.14, -3.15, -0.77
3184, -0.22, -0.05, -0.92, -15.96, -14.42, 9.17
3185, -0.24, 0.00, -1.01, -21.14, -14.14, 11.69
3186, -0.23, -0.00, -1.00, -16.73, 0.35, 10.29
3187, -0.19, -0.01, -0.95, -10.08, 0.63, 2.94
3188, -0.18, -0.01, -0.92, 4.48, 0.35, -4.97
3189, -0.17, -0.02, -1.00, 15.26, 1.12, -4.34
3190, -0.17, 0.01, -0.97, 15.82, -4.41, -15.19
3191, -0.22, -0.02, -0.99, 9.59, 4.13, -9.10
3192, -0.22, -0.06, -0.96, -1.75, -5.39, -7.14
3193, -0.20, -0.04, -1.00, -0.56, 1.96, -20.58
3194, -0.21, -0.03, -0.95, 0.21, 4.55, -29.47
3195, -0.17, -0.03, -0.94, 3.92, -3.15, -28.70
3196, -0.18, -0.02, -0.94, 13.09, 0.56, -30.66
3197, -0.22, -0.04, -0.97, 21.49, -3.29, -28.21
3198, -0.26, -0.02, -0.97, 21.91, -0.42, -19.18
3199, -0.26, -0.05, -1.01, 3.99, -11.27, -7.00
3200, -0.24, -0.12, -0.98, 0.98, 5.46, -6.23
3201, -0.22, -0.11, -0.90, -3.78, -3.01, -3.43
3202, -0.20, -0.07, -0.96, -1.33, -3.08, 2.24
3203, -0.21, -0.07, -0.85, -4.06, -6.09, 22.61
3204, -0.28, -0.12, -1.02, -20.93, -39.83, 23.59
3205, -0.29, -0.06, -1.11, -37.17, -10.99, 22.26
3206, -0.25, -0.00, -0.97, -41.02, -2.87, 22.33
3207, -0.22, 0.03, -0.92, -36.40, -4.97, 27.37
3208, -0.22, 0.06, -0.91, -30.80, -14.56, 30.52
3209, -0.22, 0.05, -0.95, -22.54, -18.20, 25.27
3210, -0.24, 0.05, -0.97, -13.44, -11.76, 22.05
3211, -0.25, 0.04, -0.97, -8.75, -7.28, 15.33
3212, -0.26, 0.04, -0.95, -2.38, -1.47, 13.86
3213, -0.24, 0.05, -0.94, -0.14, -4.48, 12.32
3214, -0.25, 0.05, -0.96, 2.80, -3.01, 10.50
3215, -0.23, 0.04, -0.96, 5.04, 0.28, 7.91
3216, -0.24, 0.03, -0.95, 5.04, -1.61, 5.32
3217, -0.25, 0.04, -0.96, 5.95, -1.26, 5.32
3218, -0.26, 0.04, -0.95, 6.23, -2.03, 5.18
3219, -0.25, 0.03, -0.95, 6.72, -1.33, 4.13
3220, -0.26, 0.00, -0.96, 3.29, -2.73, -2.59
3221, -0.27, -0.00, -0.96, 4.62, 2.87, -12.67
3222, -0.24, 0.03, -0.97, 6.02, 6.23, -20.72
3223, -0.24, 0.05, -0.96, 7.49, 10.71, -27.30
3224, -0.24, 0.11, -1.05, 20.23, 17.71, -17.50
3225, -0.23, 0.17, -0.72, 25.34, 20.23, 30.31
3226, -0.31, -0.09, -1.05, -5.81, -60.76, 28.77
3227, -0.30, -0.04, -1.22, -12.11, 18.62, 9.87
3228, -0.24, 0.03, -0.87, -18.20, 13.65, 8.96
3229, -0.19, 0.04, -0.94, -21.07, 1.61, 9.45
3230, -0.21, 0.04, -0.92, -21.07, -4.97, 8.12
3231, -0.25, 0.07, -0.95, -18.48, -7.77, 12.60
3232, -0.25, 0.07, -0.96, -12.95, -4.55, 9.52
3233, -0.25, 0.09, -0.95, -6.51, 1.89, 6.09
3234, -0.25, 0.06, -0.93, -9.66, -2.66, 4.76
3235, -0.26, 0.05, -0.94, -3.57, 2.10, -3.71
3236, -0.33, 0.18, -1.00, 15.47, 16.17, 5.88
3237, -0.29, 0.26, -1.03, 29.33, 16.73, 18.41
3238, -0.19, 0.15, -0.93, 37.94, 45.15, 30.24
3239, -0.13, -0.12, -0.75, 31.78, 7.98, 19.18
3240, -0.16, -0.22, -0.99, 8.40, -33.11, -5.39
3241, -0.22, -0.04, -1.05, -13.37, -9.10, -10.71
3242, -0.22, 0.10, -1.02, -21.56, -7.14, -5.46
3243, -0.22, 0.12, -0.97, -13.16, 2.73, -0.21
3244, -0.23, 0.10, -0.93, -8.96, -5.18, 7.77
3245, -0.25, 0.06, -0.97, -3.29, -2.31, 1.89
3246, -0.22, 0.06, -0.92, 3.22, -0.35, 1.75
3247, -0.22, 0.05, -0.94, 3.01, -4.41, 1.33
3248, -0.23, 0.04, -0.97, -1.40, -4.13, 0.28
3249, -0.23, 0.07, -0.99, -2.03, 1.61, 0.00
3250, -0.21, 0.07, -0.95, -3.29, -1.47, 2.94
3251, -0.23, 0.07, -0.96, -5.46, -5.81, 11.20
3252, -0.24, 0.06, -0.97, 2.87, -1.68, 2.73
3253, -0.21, 0.07, -0.97, -5.04, -6.23, 8.75
3254, -0.24, 0.05, -0.97, -9.03, -6.30, 9.87
3255, -0.21, 0.05, -0.96, -8.05, -3.15, 8.75
3256, -0.23, 0.09, -0.95, -10.01, -5.32, 8.75
3257, -0.24, 0.08, -0.98, -13.58, -10.15, 12.67
3258, -0.25, 0.10, -0.97, -12.95, -1.26, 14.98
3259, -0.24, 0.09, -0.94, -10.85, -2.17, 14.91
3260, -0.23, 0.10, -0.95, -7.70, -2.17, 12.32
3261, -0.23, 0.11, -0.95, -4.48, -2.24, 11.06
3262, -0.23, 0.11, -0.95, -3.50, -2.45, 8.89
3263, -0.23, 0.11, -0.96, -3.36, -1.68, 8.96
3264, -0.24, 0.11, -0.95, -2.59, 0.14, 8.12
3265, -0.23, 0.13, -0.93, 2.10, 2.17, 8.47
3266, -0.22, 0.12, -0.97, 4.13, -5.95, 3.57
3267, -0.24, 0.12, -0.99, -2.45, -1.89, 9.87
3268, -0.26, 0.11, -0.95, -4.34, 1.47, 13.09
3269, -0.23, 0.12, -0.95, -4.83, 0.70, 12.88
3270, -0.23, 0.12, -0.98, -6.93, -0.91, 11.55
3271, -0.23, 0.12, -0.98, -13.23, 1.82, 14.14
3272, -0.23, 0.12, -0.97, -18.76, 5.32, 18.62
3273, -0.23, 0.12, -0.94, -21.91, 3.78, 18.06
3274, -0.22, 0.14, -0.94, -17.78, 3.57, 13.58
3275, -0.22, 0.16, -0.94, -12.60, 2.73, 7.07
3276, -0.21, 0.17, -0.92, -8.89, -0.63, 1.05
3277, -0.20, 0.17, -0.97, -9.73, -0.49, -0.91
3278, -0.23, 0.19, -0.97, -10.22, 7.70, -0.14
3279, -0.21, 0.19, -0.89, -3.85, 2.31, -5.39
3280, -0.17, 0.16, -0.94, 6.23, -2.17, -19.60
3281, -0.21, 0.20, -0.97, 7.14, 0.14, -18.27
3282, -0.19, 0.16, -0.93, 5.11, -1.89, -17.57
3283, -0.19, 0.17, -0.94, 0.63, -6.30, -14.56
3284, -0.22, 0.16, -0.95, -2.17, -7.56, -11.13
3285, -0.24, 0.19, -0.98, -5.53, -3.99, -4.27
3286, -0.22, 0.18, -0.95, -7.00, 0.21, -1.19
3287, -0.22, 0.18, -0.94, -7.00, -1.75, 2.73
3288, -0.23, 0.18, -0.94, -6.93, -4.27, 3.85
3289, -0.23, 0.20, -0.94, -2.94, -0.42, 3.22
3290, -0.22, 0.19, -0.94, -2.10, -1.82, 3.64
3291, -0.23, 0.19, -0.94, 1.54, -1.61, 3.29
3292, -0.23, 0.19, -0.94, 1.61, -1.82, 3.43
3293, -0.21, 0.18, -0.93, 0.70, -2.59, 2.66
3294, -0.22, 0.18, -0.94, 2.45, -6.09, -0.28
3295, -0.24, 0.19, -0.96, 1.05, -2.66, 2.17
3296, -0.23, 0.18, -0.96, -1.33, -1.75, 4.13
3297, -0.22, 0.18, -0.94, -1.12, -0.70, 0.91
3298, -0.22, 0.18, -0.93, -0.07, -2.17, 0.70
3299, -0.23, 0.20, -0.95, 1.75, -3.01, -0.14
3300, -0.23, 0.20, -0.96, 1.89, -1.26, 0.70
3301, -0.22, 0.18, -0.94, 2.59, -1.40, -0.14
3302, -0.23, 0.19, -0.95, 4.48, 0.35, -0.49
3303, -0.22, 0.18, -0.93, 4.34, -1.26, 0.07
3304, -0.23, 0.17, -0.95, 4.20, -2.31, -1.68
3305, -0.23, 0.18, -0.94, 3.71, -0.77, -1.12
3306, -0.23, 0.17, -0.94, 1.75, -1.61, 0.07
3307, -0.23, 0.17, -0.95, 1.40, -0.35, -0.70
3308, -0.22, 0.18, -0.95, 1.12, -1.05, 0.00
3309, -0.23, 0.18, -0.94, 0.77, 0.42, 1.33
3310, -0.23, 0.18, -0.95, 1.40, 0.21, 1.12
3311, -0.22, 0.18, -0.94, 1.12, -0.07, 1.89
3312, -0.22, 0.18, -0.95, 1.26, -0.21, 0.70
3313, -0.22, 0.18, -0.94, 3.36, -0.63, 0.91
3314, -0.22, 0.18, -0.96, 3.43, -0.98, 1.54
3315, -0.23, 0.18, -0.96, 3.64, 0.84, 0.98
3316, -0.22, 0.17, -0.95, 3.57, 0.49, 0.77
3317, -0.23, 0.17, -0.94, 2.87, 0.70, 0.70
3318, -0.22, 0.17, -0.96, 3.08, 1.82, 1.19
3319, -0.22, 0.16, -0.96, 1.68, 1.19, -1.05
3320, -0.21, 0.18, -0.93, 3.85, 0.70, -6.58
3321, -0.21, 0.18, -0.94, 6.65, -0.98, -8.54
3322, -0.21, 0.17, -0.93, 8.61, -0.42, -7.98
3323, -0.22, 0.17, -0.93, 13.23, -2.17, -8.26
3324, -0.21, 0.16, -0.93, 15.75, -6.37, -10.36
3325, -0.21, 0.17, -0.93, 17.43, -10.08, -8.19
3326, -0.23, 0.16, -0.95, 19.04, -9.38, -6.23
3327, -0.25, 0.16, -0.96, 19.67, -9.94, -3.01
3328, -0.25, 0.15, -0.99, 24.64, -1.54, 0.70
3329, -0.24, 0.12, -0.94, 20.93, -1.05, 8.89
3330, -0.26, 0.09, -0.96, 17.15, -6.02, 9.45
3331, -0.25, 0.10, -0.96, 21.63, 2.17, 9.10
3332, -0.22, 0.09, -0.95, 17.92, -1.26, 9.38
3333, -0.23, 0.07, -0.96, 14.91, -1.40, 8.47
3334, -0.24, 0.05, -0.95, 10.57, -4.83, 5.18
3335, -0.24, 0.05, -0.96, 9.45, -3.29, -0.42
3336, -0.22, 0.05, -0.96, 9.24, -3.36, -4.34
3337, -0.24, 0.07, -0.96, 5.32, -3.92, -4.90
3338, -0.23, 0.07, -0.96, 2.45, -5.11, -3.50
3339, -0.23, 0.03, -0.95, -1.68, -8.26, -10.78
3340, -0.24, 0.05, -0.94, -0.98, -9.59, -16.66
3341, -0.24, 0.07, -0.96, 2.10, -5.88, -14.21
3342, -0.26, 0.10, -0.95, 5.18, -1.68, -12.18
3343, -0.26, 0.10, -0.98, 13.09, -0.49, -8.82
3344, -0.27, 0.10, -0.98, 22.05, 11.48, -10.43
3345, -0.25, 0.07, -0.97, 26.32, 15.75, -9.31
3346, -0.25, 0.07, -0.94, 28.42, 15.75, 0.98
3347, -0.25, 0.00, -0.95, 17.99, -1.68, 4.13
3348, -0.27, 0.00, -0.99, 12.74, 4.76, 7.49
3349, -0.24, -0.03, -0.98, -0.56, 4.27, 8.89
3350, -0.23, -0.02, -0.95, -3.22, 10.64, 7.00
3351, -0.21, 0.01, -0.96, -2.17, 8.82, 2.03
3352, -0.20, 0.02, -0.96, 1.40, 9.94, -2.24
3353, -0.20, 0.02, -0.95, 7.14, 3.92, -3.92
3354, -0.20, 0.01, -0.96, 12.74, 6.93, -6.86
3355, -0.21, -0.02, -0.95, 11.62, -1.47, -6.37
3356, -0.22, -0.02, -0.98, 19.39, 5.95, -13.30
3357, -0.17, -0.02, -0.95, 5.67, -5.32, -7.63
3358, -0.23, -0.08, -1.01, -14.00, -15.05, -3.01
3359, -0.26, 0.02, -1.01, -17.57, 2.59, -3.15
3360, -0.22, 0.09, -0.95, -14.63, 7.42, 7.91
3361, -0.22, 0.09, -0.94, -2.17, 7.49, 13.16
3362, -0.19, 0.02, -0.94, 7.00, -17.36, 10.92
3363, -0.19, -0.01, -0.97, 16.38, -1.82, -1.61
3364, -0.15, -0.05, -0.95, 15.96, -1.26, -11.62
3365, -0.18, -0.08, -0.97, 3.57, -15.54, -18.97
3366, -0.22, 0.00, -0.98, 2.52, -3.57, -14.56
3367, -0.23, 0.03, -0.99, -2.45, -6.30, -10.85
3368, -0.22, 0.03, -1.01, 0.98, 5.46, -12.88
3369, -0.21, -0.01, -0.94, 3.43, 4.48, -13.58
3370, -0.18, -0.02, -0.93, 5.53, 2.31, -16.24
3371, -0.21, -0.04, -0.93, 2.52, -9.52, -18.34
3372, -0.22, -0.01, -0.98, -0.77, -8.26, -18.62
3373, -0.23, 0.03, -1.00, -4.48, -3.99, -13.44
3374, -0.23, 0.05, -0.99, 0.91, 5.46, -2.73
3375, -0.25, 0.04, -0.93, -3.08, -6.65, 12.11
3376, -0.23, -0.03, -0.98, -0.42, -3.22, 11.90
3377, -0.22, -0.02, -0.94, 1.68, 0.49, 9.31
3378, -0.22, -0.02, -0.96, 2.45, -1.40, 5.81
3379, -0.19, -0.02, -0.95, 1.89, -3.92, 3.43
3380, -0.21, -0.02, -0.98, -1.54, -5.88, 0.91
3381, -0.22, -0.01, -0.97, -4.55, -6.72, 0.28
3382, -0.22, 0.01, -0.98, -4.41, -1.54, 0.49
3383, -0.22, 0.03, -0.98, -0.91, 1.33, -3.01
3384, -0.22, 0.03, -0.97, 9.87, 7.21, -2.73
3385, -0.21, -0.01, -0.94, 12.60, 2.10, -3.15
3386, -0.20, -0.03, -0.96, 11.20, -1.61, -4.76
3387, -0.23, -0.04, -0.97, 3.78, -6.09, -2.94
3388, -0.25, -0.01, -0.98, 3.08, 1.68, 3.50
3389, -0.21, -0.02, -0.94, -1.89, -6.65, 8.68
3390, -0.24, -0.02, -1.00, -12.25, -10.99, 14.77
3391, -0.19, -0.08, -0.96, -10.01, -2.38, 0.21
3392, -0.24, 0.05, -0.93, 7.84, 6.86, -0.21
3393, -0.18, -0.00, -0.99, 1.89, -12.81, 2.59
3394, -0.23, 0.01, -1.00, 3.57, 5.46, 0.14
3395, -0.22, -0.02, -0.91, 3.43, -1.05, -0.35
3396, -0.21, -0.03, -0.97, 3.71, -1.82, -6.23
3397, -0.22, 0.01, -0.97, 4.41, 2.73, -6.16
3398, -0.22, -0.03, -0.95, 5.18, 3.85, -10.29
3399, -0.21, -0.04, -0.97, 3.29, 3.50, -12.74
3400, -0.23, 0.01, -0.97, 5.74, 7.98, -13.51
3401, -0.20, 0.00, -0.96, 9.31, 5.25, -10.85
3402, -0.22, -0.00, -0.98, 20.93, 10.78, -13.16
3403, -0.21, -0.02, -0.90, 27.93, 16.59, -0.56
3404, -0.18, -0.11, -0.94, 10.43, -12.04, -3.36
3405, -0.23, -0.07, -1.07, 4.76, -14.77, -6.65
3406, -0.20, 0.01, -0.93, 0.42, 9.73, 12.67
3407, -0.24, -0.11, -0.96, -21.98, -28.21, 13.79
3408, -0.26, -0.08, -1.07, -32.55, -6.23, 8.19
3409, -0.20, 0.02, -0.94, -27.37, 6.30, 6.23
3410, -0.18, 0.04, -0.87, -16.66, -6.93, 12.53
3411, -0.21, -0.00, -0.93, -10.85, -29.05, 14.56
3412, -0.26, 0.00, -1.04, -17.22, -20.58, 15.19
3413, -0.25, 0.00, -1.00, -20.51, -2.66, 11.48
3414, -0.22, 0.02, -0.94, -15.89, 2.03, 9.17
3415, -0.22, 0.04, -0.94, -11.41, -4.48, 7.35
3416, -0.23, 0.04, -0.95, -6.30, -9.45, 6.65
3417, -0.24, 0.03, -0.97, -5.11, -10.57, 4.62
3418, -0.25, 0.04, -0.97, -4.06, -4.20, 5.67
3419, -0.25, 0.04, -0.94, 0.98, 0.63, 6.51
3420, -0.26, 0.05, -0.96, 3.85, -0.84, 2.66
3421, -0.23, -0.00, -0.96, 3.01, 3.36, -3.01
3422, -0.25, 0.01, -0.98, 8.12, 5.88, -15.68
3423, -0.23, 0.09, -0.97, 14.14, 15.82, -24.15
3424, -0.17, 0.03, -0.94, 20.79, 1.82, -13.30
3425, -0.24, 0.16, -0.88, 34.86, 22.19, 5.04
3426, -0.30, -0.07, -0.97, 3.50, -42.35, 20.09
3427, -0.29, -0.10, -1.22, -15.82, 4.06, 1.05
3428, -0.26, 0.04, -0.90, -17.29, 27.37, 2.31
3429, -0.16, 0.00, -0.87, -11.41, 5.67, 0.91
3430, -0.20, 0.03, -0.92, -6.79, -7.07, -0.70
3431, -0.23, 0.03, -0.98, -5.32, -12.18, -0.42
3432, -0.22, 0.05, -0.97, -2.80, -6.86, 2.38
3433, -0.24, 0.04, -0.96, -0.70, -2.80, 3.22
3434, -0.24, 0.04, -0.97, 0.14, -2.59, 1.19
3435, -0.24, 0.05, -0.97, 1.05, 1.05, 2.73
3436, -0.23, 0.04, -0.96, 3.29, 1.33, 2.73
3437, -0.23, 0.03, -0.96, 6.93, 4.62, -2.03
3438, -0.21, 0.03, -0.96, 9.80, 3.08, -6.86
3439, -0.22, 0.06, -0.97, 17.08, 10.71, -2.80
3440, -0.22, 0.03, -0.92, 12.18, -5.25, 2.80
3441, -0.23, -0.01, -1.05, 6.02, -2.17, 3.22
3442, -0.24, -0.00, -0.94, 1.47, 5.32, 5.67
3443, -0.22, -0.03, -0.96, -6.02, -2.59, 6.37
3444, -0.22, 0.02, -0.96, -5.18, 3.29, 5.32
3445, -0.20, 0.02, -0.96, -5.11, -3.08, 1.40
3446, -0.22, 0.04, -0.96, -0.42, 2.31, -0.42
3447, -0.21, 0.03, -0.95, -0.28, -1.54, 0.91
3448, -0.23, 0.01, -0.96, 0.28, 0.35, -0.07
3449, -0.23, 0.02, -0.95, 1.19, -0.56, 1.96
3450, -0.22, 0.02, -0.96, 1.96, -0.35, 0.07
3451, -0.21, 0.01, -0.96, 3.08, -1.54, -2.31
3452, -0.21, 0.02, -0.96, 5.11, -1.75, -6.65
3453, -0.22, 0.03, -0.97, 3.99, -4.76, -5.25
3454, -0.22, 0.02, -0.97, 6.51, 1.19, -4.48
3455, -0.20, 0.03, -0.96, 9.45, 1.47, -7.00
3456, -0.22, 0.01, -0.96, 7.84, -4.13, -3.85
3457, -0.24, -0.02, -1.00, 1.61, -4.90, -0.98
3458, -0.22, 0.02, -0.98, 1.47, 2.24, -2.73
3459, -0.19, 0.02, -0.94, 7.70, 0.70, -7.14
3460, -0.23, 0.01, -0.97, 14.70, 3.01, -6.23
3461, -0.21, -0.03, -0.98, 9.45, 3.36, -3.08
3462, -0.22, -0.05, -0.97, 3.36, 2.94, -7.07
3463, -0.20, -0.03, -0.94, 0.07, -0.56, -10.57
3464, -0.21, 0.02, -0.96, -1.47, -3.71, -6.72
3465, -0.24, 0.02, -0.97, -2.66, -2.94, -0.14
3466, -0.23, -0.01, -0.98, -2.24, 1.96, 0.63
3467, -0.23, 0.00, -0.95, 0.35, 5.81, 1.96
3468, -0.19, -0.00, -0.95, 6.72, 3.78, -0.70
3469, -0.21, -0.00, -0.98, 7.35, 5.04, 0.07
3470, -0.21, 0.00, -0.99, 6.16, 3.71, 2.03
3471, -0.20, -0.02, -0.92, 8.33, 2.31, 5.67
3472, -0.21, -0.04, -0.98, 7.21, -0.28, 3.29
3473, -0.22, -0.05, -1.00, 0.49, -0.21, 0.77
3474, -0.18, -0.02, -0.95, 1.68, 3.43, -1.26
3475, -0.21, -0.00, -0.97, -0.84, -1.61, 3.57
3476, -0.20, -0.02, -0.97, 4.83, 4.55, -2.66
3477, -0.20, -0.02, -0.96, 5.67, 1.47, -0.56
3478, -0.20, -0.03, -0.97, 4.76, 0.77, -2.45
3479, -0.21, -0.04, -0.95, 3.29, 1.33, -2.10
3480, -0.20, -0.06, -0.97, 2.52, 0.00, -4.69
3481, -0.18, -0.03, -0.95, 1.19, -1.75, -8.61
3482, -0.19, -0.05, -0.95, 1.89, -5.67, -9.87
3483, -0.21, -0.02, -1.00, -0.63, -5.32, -6.93
3484, -0.20, -0.03, -0.99, 0.21, 2.52, -8.61
3485, -0.18, -0.04, -0.94, -0.35, 0.35, -11.62
3486, -0.20, -0.01, -0.95, 0.35, -4.48, -5.81
3487, -0.21, -0.02, -0.99, 0.84, -4.90, -6.72
3488, -0.21, -0.02, -0.96, -2.31, -4.83, -0.63
3489, -0.23, -0.04, -0.96, -10.08, -10.43, 2.52
3490, -0.22, -0.03, -0.98, -13.23, -10.85, 4.69
3491, -0.22, 0.01, -1.00, -8.47, 0.21, -0.70
3492, -0.19, -0.02, -0.93, 2.87, 1.68, -2.17
3493, -0.18, -0.01, -0.95, 2.94, -6.72, 0.07
3494, -0.21, -0.02, -1.00, 1.75, -4.69, -1.40
3495, -0.22, -0.00, -0.97, 3.99, 4.13, -3.29
3496, -0.20, -0.02, -0.96, -1.47, -3.85, -3.01
3497, -0.20, -0.02, -1.00, 0.00, 0.91, -8.68
3498, -0.20, -0.03, -0.96, 1.82, 3.92, -12.74
3499, -0.17, -0.03, -0.95, 7.21, 3.43, -16.94
3500, -0.18, -0.01, -0.95, 9.38, -3.36, -21.35
3501, -0.23, -0.03, -0.99, -0.35, -13.09, -11.20
3502, -0.26, -0.01, -0.97, -1.61, -2.38, -4.76
3503, -0.24, -0.01, -0.96, -8.61, -7.21, 8.19
3504, -0.24, -0.04, -0.98, -13.86, -9.10, 7.49
3505, -0.24, -0.02, -0.97, -10.92, -3.99, 6.44
3506, -0.20, 0.02, -0.95, -2.52, 1.47, 3.78
3507, -0.20, 0.00, -0.96, 2.31, -2.87, 7.07
3508, -0.23, 0.00, -0.99, 5.60, 0.98, 5.74
3509, -0.18, -0.00, -0.97, 6.02, 1.82, 6.30
3510, -0.22, -0.03, -0.97, 4.48, 2.59, 0.00
3511, -0.21, -0.07, -0.96, -0.91, -1.33, -2.45
3512, -0.21, -0.04, -0.97, -3.50, 0.14, -6.16
3513, -0.19, -0.01, -0.95, -1.19, -0.98, -9.80
3514, -0.22, -0.00, -0.95, 3.57, -2.87, -8.26
3515, -0.23, 0.00, -0.99, 6.16, -2.38, -10.22
3516, -0.22, -0.02, -0.98, 7.63, 3.50, -7.91
3517, -0.23, -0.03, -0.94, 5.25, -2.80, -5.88
3518, -0.22, -0.04, -0.98, -1.26, -5.32, -1.26
3519, -0.24, -0.02, -0.98, -5.11, -0.28, 2.45
3520, -0.23, -0.01, -0.95, -7.56, -2.94, 6.16
3521, -0.22, -0.00, -0.98, -9.03, -4.41, 9.66
3522, -0.23, -0.00, -0.97, -7.63, 1.47, 11.62
3523, -0.23, 0.02, -0.97, -1.40, 1.05, 8.68
3524, -0.19, 0.01, -0.94, 11.06, 8.26, 1.12
3525, -0.19, -0.05, -0.94, 10.64, 0.00, 0.42
3526, -0.22, -0.03, -0.97, 4.76, -2.73, 3.36
3527, -0.22, -0.04, -0.99, -2.38, -4.76, 3.36
3528, -0.21, -0.01, -0.97, -4.69, -0.07, 2.45
3529, -0.22, -0.00, -0.97, -3.71, 0.77, 1.82
3530, -0.20, -0.02, -0.95, 2.45, 4.48, -0.77
3531, -0.20, -0.02, -0.95, 4.06, -0.49, -3.78
3532, -0.21, -0.00, -0.96, 6.58, 2.45, -2.80
3533, -0.21, -0.02, -0.97, 4.06, 0.14, -2.10
3534, -0.20, -0.02, -0.98, 3.15, 0.49, -4.69
3535, -0.22, 0.00, -0.97, 4.55, 2.59, -1.68
3536, -0.21, -0.02, -0.96, 3.22, -1.54, -2.94
3537, -0.19, -0.03, -0.96, 2.87, -0.35, -2.94
3538, -0.20, -0.03, -0.98, 3.01, -2.38, -7.84
3539, -0.19, -0.04, -0.97, 7.77, 3.57, -12.32
3540, -0.17, -0.03, -0.97, 17.85, 5.88, -11.06
3541, -0.18, -0.05, -0.93, 12.46, -9.94, -14.49
3542, -0.22, -0.07, -1.05, 9.31, -3.15, -16.45
3543, -0.16, -0.03, -0.93, 10.92, 10.78, -16.38
3544, -0.17, -0.03, -0.94, 3.71, -5.95, -15.54
3545, -0.26, -0.06, -1.01, -2.59, -8.19, -7.35
3546, -0.23, -0.05, -1.03, -1.05, 1.54, -14.07
3547, -0.19, -0.04, -0.96, -0.84, 3.71, -18.13
3548, -0.22, -0.10, -0.89, 2.17, -3.08, -11.69
3549, -0.24, -0.09, -0.91, -0.84, -21.00, 1.61
3550, -0.22, -0.05, -0.95, 3.64, -9.87, 7.42
3551, -0.28, -0.05, -0.96, -13.58, -31.92, 15.68
3552, -0.29, -0.05, -1.10, -23.03, -10.64, 17.99
3553, -0.21, -0.00, -0.95, -18.41, 6.72, 15.26
3554, -0.22, 0.02, -0.92, -17.29, -9.66, 23.80
3555, -0.22, -0.02, -0.98, -17.08, -15.26, 21.35
3556, -0.25, 0.01, -1.00, -10.01, 0.42, 21.98
3557, -0.22, 0.01, -0.96, -11.83, -2.31, 20.23
3558, -0.24, 0.01, -0.96, -10.36, -3.01, 19.11
3559, -0.23, 0.01, -0.96, -8.26, -0.42, 17.36
3560, -0.23, 0.01, -0.95, -4.69, 0.42, 16.24
3561, -0.22, 0.00, -0.97, -1.12, -0.56, 11.13
3562, -0.23, 0.05, -0.96, 1.68, 6.37, 15.89
3563, -0.21, -0.02, -0.95, -1.61, -4.62, 14.00
3564, -0.23, 0.00, -0.96, 0.28, 0.21, 10.29
3565, -0.23, 0.01, -0.96, -4.34, -3.64, 9.87
3566, -0.23, 0.01, -0.97, -4.90, -0.91, 6.79
3567, -0.23, 0.04, -0.95, -1.96, 0.42, 2.03
3568, -0.22, 0.03, -0.96, 0.28, -1.19, -0.98
3569, -0.23, -0.00, -0.95, -0.07, -1.54, -3.57
3570, -0.25, 0.02, -0.98, 2.38, 1.47, -18.76
3571, -0.24, 0.11, -0.88, 11.55, 18.76, -6.30
3572, -0.22, 0.10, -0.97, 22.68, 16.31, 0.35
3573, -0.16, 0.06, -0.88, 29.40, 25.97, 9.38
3574, -0.22, -0.12, -0.92, 12.18, -24.85, 7.35
3575, -0.24, -0.10, -1.08, -6.09, -8.47, -0.07
3576, -0.22, 0.02, -0.95, -16.10, -1.26, 1.19
3577, -0.22, 0.04, -0.96, -14.56, -2.45, 2.03
3578, -0.22, 0.06, -0.97, -8.89, 1.19, 5.11
3579, -0.21, 0.03, -0.96, -4.20, -0.91, 3.29
3580, -0.23, 0.04, -0.95, -0.07, -2.10, 3.43
3581, -0.22, 0.03, -0.96, 1.05, -3.57, 5.11
3582, -0.22, 0.02, -0.96, 3.92, -0.14, 2.10
3583, -0.22, 0.01, -0.96, 3.22, -0.98, -0.35
3584, -0.23, 0.02, -0.97, 1.82, -3.71, -0.14
3585, -0.21, 0.03, -0.97, 2.03, -0.28, -0.70
3586, -0.21, 0.02, -0.96, 1.47, -1.33, -2.38
3587, -0.23, 0.01, -0.95, 0.49, -2.94, -1.05
3588, -0.21, 0.02, -0.95, 3.15, -3.50, -2.17
3589, -0.21, 0.04, -1.00, 5.11, -2.24, -1.75
3590, -0.22, -0.02, -0.97, -8.26, -7.14, -1.96
3591, -0.24, -0.05, -0.92, -9.31, -12.04, -2.73
3592, -0.23, 0.06, -0.98, -2.80, -0.91, -3.85
3593, -0.23, 0.08, -0.96, -4.83, -5.53, 4.20
3594, -0.23, 0.04, -0.98, 2.03, -3.01, 2.24
3595, -0.23, 0.02, -0.96, 2.17, -1.96, 1.61
3596, -0.24, 0.01, -0.96, 1.96, -1.54, 0.35
3597, -0.22, 0.03, -0.95, 1.82, -0.63, 1.05
3598, -0.24, 0.02, -0.98, 1.54, -3.01, -2.94
3599, -0.22, 0.06, -0.98, 4.83, 0.91, -0.70
3600, -0.22, 0.04, -0.94, 9.94, 3.01, -3.92
3601, -0.23, -0.01, -0.95, 13.23, 2.52, -7.21
3602, -0.21, -0.02, -0.96, 13.44, 2.80, -9.31
3603, -0.22, 0.01, -0.97, 11.83, 2.87, -9.94
3604, -0.23, 0.00, -0.97, 9.66, 1.26, -11.20
3605, -0.23, -0.01, -0.96, 10.92, 1.54, -13.16
3606, -0.24, 0.01, -0.98, 9.45, 1.68, -9.17
3607, -0.24, -0.00, -0.99, 4.62, 2.52, -6.72
3608, -0.24, -0.01, -0.95, 0.49, 2.94, -0.21
3609, -0.23, -0.03, -0.96, 0.91, -0.98, -1.47
3610, -0.22, 0.01, -0.96, -2.10, -0.84, 5.74
3611, -0.24, -0.03, -0.97, 0.49, 0.77, 3.78
3612, -0.21, -0.02, -0.93, 9.52, 4.55, 0.42
3613, -0.20, -0.01, -0.99, 9.38, 1.40, -1.33
3614, -0.20, -0.02, -0.96, 3.71, 0.28, 2.66
3615, -0.22, -0.04, -0.98, 0.07, 0.28, 0.56
3616, -0.21, -0.03, -0.94, -0.84, 4.76, 1.40
3617, -0.21, -0.02, -0.95, -1.33, 0.49, -1.68
3618, -0.22, -0.03, -0.96, 0.28, -0.42, -2.45
3619, -0.22, -0.01, -0.97, 0.42, -0.42, -0.28
3620, -0.21, -0.02, -0.97, 1.05, -1.61, -3.78
3621, -0.21, -0.01, -0.97, 4.76, -2.45, -6.72
3622, -0.21, -0.00, -0.97, 6.79, 2.59, -1.61
3623, -0.21, 0.00, -0.98, 6.51, 0.56, 0.00
3624, -0.20, -0.04, -0.98, 5.53, 3.22, -1.75
3625, -0.20, -0.01, -0.94, 3.15, 2.17, 6.09
3626, -0.22, -0.07, -0.95, -5.46, -10.85, 6.44
3627, -0.24, -0.02, -1.05, -10.64, -6.09, 2.94
3628, -0.20, 0.02, -1.00, -3.99, 15.26, 4.62
3629, -0.16, -0.03, -0.86, 14.91, 6.65, -17.64
3630, -0.17, -0.07, -0.95, 16.73, -5.11, -3.29
3631, -0.21, -0.05, -1.00, 7.14, -4.69, -4.76
3632, -0.22, -0.04, -1.02, -0.21, 0.49, -2.87
3633, -0.20, -0.01, -0.97, -0.84, 12.04, -1.75
3634, -0.18, -0.04, -0.94, -0.35, 2.45, -7.07
3635, -0.19, -0.07, -0.95, 2.45, 0.14, -10.50
3636, -0.19, -0.03, -0.97, 6.02, -1.61, -11.41
3637, -0.20, -0.03, -0.96, 4.83, -0.49, -11.97
3638, -0.22, -0.03, -0.98, 9.10, 2.59, -11.13
3639, -0.20, -0.02, -0.98, 9.52, 2.10, -6.44
3640, -0.20, -0.06, -0.88, 3.92, -7.35, 12.04
3641, -0.24, -0.12, -1.04, -14.00, -22.54, 5.67
3642, -0.23, -0.05, -0.99, -23.66, -2.31, 1.89
3643, -0.20, -0.01, -0.96, -19.53, -4.62, 1.40
3644, -0.17, 0.01, -0.93, -3.92, 0.42, 1.61
3645, -0.20, -0.01, -0.97, 7.70, -6.86, 0.98
3646, -0.18, -0.03, -1.01, 12.74, -0.98, -6.02
3647, -0.20, -0.01, -0.95, 10.64, 2.66, -3.15
3648, -0.22, -0.07, -0.98, 7.21, -1.96, -5.04
3649, -0.22, -0.04, -0.97, 2.24, 3.71, -1.40
3650, -0.21, -0.03, -1.00, -1.75, 4.48, -2.31
3651, -0.19, -0.06, -0.94, 2.45, 5.88, -3.92
3652, -0.18, -0.05, -0.94, 5.18, 1.82, -8.40
3653, -0.19, -0.06, -0.94, 7.14, 1.26, -7.84
3654, -0.21, -0.06, -0.95, 8.19, -1.26, -5.81
3655, -0.20, -0.05, -1.00, 2.66, -4.27, -8.33
3656, -0.18, -0.06, -0.94, 3.57, 2.38, -10.78
3657, -0.15, -0.06, -0.92, 4.97, -10.78, -18.06
3658, -0.24, -0.06, -1.01, 1.40, -8.89, -15.68
3659, -0.18, -0.04, -1.01, 0.14, -4.76, -22.96
3660, -0.23, -0.02, -0.96, 1.96, -3.43, -10.36
3661, -0.23, -0.06, -0.94, -0.49, -10.43, -1.89
3662, -0.25, -0.12, -0.93, -12.39, -22.26, 4.13
3663, -0.26, -0.11, -1.05, -28.77, -21.21, 0.63
3664, -0.22, -0.00, -0.99, -24.15, 1.33, -3.36
3665, -0.23, 0.04, -0.91, -14.49, -3.57, 2.45
3666, -0.22, -0.01, -0.95, -10.15, -12.32, 9.10
3667, -0.25, -0.02, -1.00, -6.79, -7.56, 4.41
3668, -0.23, 0.00, -0.94, 4.83, 9.66, 3.78
3669, -0.23, -0.04, -0.93, 3.43, -5.39, 4.13
3670, -0.23, -0.06, -0.99, -0.70, -2.87, 0.70
3671, -0.23, -0.00, -0.97, -0.91, -0.28, 2.03
3672, -0.21, 0.02, -0.95, -4.41, -4.83, 9.52
3673, -0.22, -0.04, -0.97, -9.94, -14.00, 11.34
3674, -0.25, -0.02, -0.99, -11.20, -7.91, 5.39
3675, -0.24, 0.02, -0.94, -7.98, -3.57, 8.75
3676, -0.25, 0.00, -0.94, -10.36, -12.81, 10.78
3677, -0.26, -0.04, -0.98, -12.74, -8.75, 6.51
3678, -0.26, -0.04, -0.97, -15.54, -4.41, -13.09
3679, -0.24, 0.07, -0.99, -5.67, 9.80, -18.34
3680, -0.25, 0.12, -0.93, 7.84, 8.82, -3.92
3681, -0.19, 0.11, -0.82, 26.46, 9.03, 14.14
3682, -0.26, -0.05, -0.98, 13.44, -24.64, 21.00
3683, -0.29, -0.08, -1.14, -5.74, -4.06, 6.09
3684, -0.28, 0.01, -0.97, -13.37, 15.19, 2.17
3685, -0.19, 0.03, -0.89, -9.38, 8.82, 1.61
3686, -0.22, 0.01, -0.92, -4.20, -7.28, 2.31
3687, -0.26, 0.02, -0.99, -1.96, -5.46, 1.05
3688, -0.24, 0.02, -0.95, 2.10, 2.10, -1.40
3689, -0.24, 0.02, -0.93, 4.06, -2.80, -3.71
3690, -0.25, 0.02, -0.96, 6.86, 0.21, -3.43
3691, -0.25, 0.01, -0.95, 4.20, -3.57, -1.26
3692, -0.25, -0.00, -0.98, -0.14, -3.01, -2.73
3693, -0.25, 0.03, -0.98, -0.98, 2.66, -1.96
3694, -0.24, 0.04, -0.97, -0.91, 2.24, 2.45
3695, -0.23, 0.03, -0.93, 5.39, 5.95, 0.35
3696, -0.24, -0.01, -0.94, 2.45, -7.07, 3.08
3697, -0.26, -0.01, -1.00, 1.89, 0.77, 1.54
3698, -0.23, 0.03, -0.94, 8.40, 9.94, 0.07
3699, -0.21, -0.01, -0.92, 10.22, 1.75, 0.14
3700, -0.23, -0.03, -0.98, 8.89, -1.54, -1.75
3701, -0.23, -0.01, -0.97, 8.40, 5.74, -5.18
3702, -0.23, 0.01, -0.94, 8.75, 1.96, -1.96
3703, -0.23, 0.01, -0.96, 11.20, 5.04, -1.05
3704, -0.24, -0.02, -0.95, 2.80, -0.98, 5.67
3705, -0.25, -0.04, -0.98, -6.44, -0.56, 6.44
3706, -0.23, 0.00, -0.96, -5.11, 0.35, 5.25
