timestamp,accX,accY,accZ,gyrX,gyrY,gyrZ
0,0.58,-0.15,0.83,0.56,-0.91,0.77
20,0.58,-0.15,0.83,0.91,-0.84,0.77
40,0.58,-0.15,0.83,1.05,-0.98,0.91
60,0.58,-0.15,0.83,1.19,-1.12,0.63
80,0.58,-0.15,0.83,0.63,-1.19,0.77
100,0.58,-0.15,0.83,0.91,-1.89,0.28
120,0.58,-0.15,0.83,0.7,-1.68,0.28
140,0.58,-0.16,0.83,0.56,-0.98,0.28
160,0.58,-0.16,0.84,0.7,-0.84,0.14
180,0.58,-0.15,0.83,3.99,-0.35,0.7
200,0.57,-0.15,0.82,3.99,-1.89,0.63
220,0.57,-0.15,0.82,2.94,-2.73,0.07
240,0.58,-0.15,0.83,2.73,-1.75,-0.07
260,0.59,-0.15,0.83,3.29,-1.19,0.07
280,0.58,-0.15,0.83,2.94,-0.42,-0.07
300,0.58,-0.15,0.83,2.45,-0.35,-0.28
320,0.58,-0.14,0.82,2.52,-0.63,-0.35
340,0.58,-0.15,0.83,2.1,-1.19,-0.35
360,0.58,-0.15,0.83,1.61,-1.47,-0.42
380,0.58,-0.14,0.83,1.96,-0.77,-0.28
400,0.58,-0.15,0.83,2.31,-0.35,-0.42
420,0.58,-0.15,0.83,1.68,0.14,-0.21
440,0.58,-0.14,0.83,1.61,-0.28,-0.42
460,0.58,-0.14,0.83,2.45,-0.14,-0.49
480,0.58,-0.14,0.83,2.03,0.0,-0.14
500,0.58,-0.14,0.83,2.03,0.42,-0.28
520,0.57,-0.14,0.83,1.82,-0.07,-0.42
540,0.58,-0.14,0.83,2.1,0.14,-0.49
560,0.58,-0.14,0.83,1.89,0.07,-0.56
580,0.58,-0.14,0.83,1.89,0.14,-0.7
600,0.58,-0.14,0.83,1.96,0.49,-0.63
620,0.57,-0.14,0.83,1.89,0.14,-0.35
640,0.57,-0.14,0.83,1.19,0.0,-0.21
660,0.57,-0.14,0.83,1.12,-0.56,-0.21
680,0.57,-0.14,0.84,0.84,-0.35,-0.07
700,0.57,-0.14,0.83,1.47,-1.12,0.07
720,0.57,-0.14,0.84,0.49,-1.33,-0.14
740,0.57,-0.14,0.84,0.21,-1.33,-0.07
760,0.57,-0.14,0.83,-0.84,-1.75,-0.49
780,0.57,-0.14,0.83,-0.84,-2.31,-0.77
800,0.58,-0.14,0.83,-0.42,-2.31,-0.28
820,0.58,-0.14,0.83,-0.42,-1.68,-0.14
840,0.58,-0.14,0.83,-0.42,-1.82,0.63
860,0.58,-0.14,0.83,-0.07,-1.75,0.63
880,0.57,-0.14,0.83,0.42,-2.03,0.56
900,0.58,-0.14,0.83,0.63,-1.96,1.05
920,0.58,-0.14,0.83,0.28,-1.75,0.84
940,0.58,-0.14,0.83,0.07,-1.61,0.63
960,0.58,-0.14,0.83,0.35,-1.4,0.7
980,0.58,-0.14,0.83,0.0,-1.47,0.56
1000,0.58,-0.14,0.83,0.49,-1.47,0.49
1020,0.58,-0.14,0.83,0.49,-1.33,0.56
1040,0.58,-0.14,0.83,0.07,-1.19,0.42
1060,0.58,-0.14,0.83,0.49,-1.19,0.56
1080,0.58,-0.14,0.83,0.35,-0.84,0.42
1100,0.58,-0.15,0.83,-0.14,-1.4,0.35
1120,0.58,-0.14,0.83,0.42,-0.91,0.21
1140,0.58,-0.14,0.83,0.42,-1.12,0.28
1160,0.58,-0.14,0.83,0.21,-0.84,0.42
1180,0.58,-0.15,0.83,0.0,-0.91,0.21
1200,0.58,-0.15,0.83,0.07,-1.33,0.21
1220,0.58,-0.14,0.83,0.35,-0.91,0.14
1240,0.58,-0.15,0.83,0.0,-1.12,0.28
1260,0.58,-0.14,0.83,-0.07,-0.91,0.14
1280,0.58,-0.15,0.83,0.35,-1.33,0.49
1300,0.58,-0.15,0.83,0.63,-1.33,0.42
1320,0.58,-0.15,0.83,0.35,-1.12,0.21
1340,0.58,-0.15,0.83,0.21,-0.98,0.21
1360,0.58,-0.15,0.83,0.56,-1.05,0.14
1380,0.58,-0.15,0.83,0.28,-1.26,0.07
1400,0.58,-0.15,0.83,0.63,-1.26,0.28
1420,0.58,-0.14,0.83,0.7,-1.19,0.14
1440,0.58,-0.15,0.83,0.56,-1.19,0.28
1460,0.58,-0.15,0.83,3.78,-0.56,0.14
1480,0.58,-0.15,0.83,4.2,-0.84,0.77
1500,0.57,-0.14,0.82,3.08,-1.47,0.7
1520,0.58,-0.14,0.83,2.38,-1.47,0.28
1540,0.58,-0.14,0.83,2.59,-1.05,0.28
1560,0.58,-0.15,0.83,2.94,-0.84,0.14
1580,0.58,-0.14,0.83,2.87,-0.35,-0.07
1600,0.58,-0.14,0.83,2.59,-0.49,-0.28
1620,0.58,-0.14,0.83,1.96,-0.77,-0.56
1640,0.58,-0.14,0.83,1.82,-0.77,-0.49
1660,0.58,-0.14,0.83,2.03,-0.56,-0.49
1680,0.58,-0.14,0.83,2.24,-0.42,-0.07
1700,0.58,-0.14,0.83,2.17,0.14,-0.14
1720,0.58,-0.14,0.83,2.31,0.21,0.07
1740,0.58,-0.14,0.83,2.31,0.0,0.07
1760,0.58,-0.13,0.83,2.31,-0.07,0.21
1780,0.58,-0.13,0.83,2.1,0.07,0.14
1800,0.58,-0.14,0.83,1.89,0.14,0.07
1820,0.57,-0.14,0.83,2.59,-0.21,-0.28
1840,0.58,-0.14,0.83,2.03,-0.28,-0.28
1860,0.58,-0.13,0.83,2.24,0.07,0.07
1880,0.57,-0.14,0.83,1.82,0.14,-0.07
1900,0.57,-0.14,0.83,1.4,-0.63,0.07
1920,0.57,-0.14,0.83,0.98,-0.91,0.28
1940,0.57,-0.14,0.83,0.0,-0.7,-17.85
1960,0.57,-0.14,0.84,0.84,-1.33,-0.14
1980,0.57,-0.14,0.84,0.14,-1.61,-0.14
2000,0.57,-0.14,0.83,-0.35,-1.82,0.14
2020,0.57,-0.14,0.83,-0.91,-2.24,0.0
2040,0.58,-0.14,0.83,-0.56,-2.38,0.21
2060,0.58,-0.14,0.83,-0.56,-2.24,0.42
2080,0.57,-0.14,0.83,-0.14,-1.96,0.84
2100,0.58,-0.14,0.83,-0.28,-1.82,1.05
2120,0.58,-0.14,0.83,0.07,-1.4,1.12
2140,0.58,-0.14,0.83,-0.07,-1.61,0.98
2160,0.58,-0.14,0.83,0.21,-1.61,0.7
2180,0.58,-0.13,0.83,0.14,-1.75,0.84
2200,0.58,-0.14,0.83,0.42,-1.68,0.91
2220,0.58,-0.14,0.83,-0.14,-1.54,0.56
2240,0.58,-0.14,0.83,-0.42,-1.4,0.42
2260,0.58,-0.14,0.83,-0.07,-1.19,0.42
2280,0.58,-0.14,0.83,-0.35,-1.05,0.49
2300,0.57,-0.14,0.83,-0.14,-1.05,0.56
2320,0.58,-0.14,0.83,-0.21,-1.54,0.49
2340,0.58,-0.15,0.83,-0.35,-1.12,0.56
2360,0.58,-0.14,0.83,-0.07,-0.91,0.63
2380,0.58,-0.14,0.83,-0.07,-1.05,0.56
2400,0.58,-0.14,0.83,-0.07,-0.14,-0.21
2420,0.58,-0.14,0.83,-1.12,-0.42,-0.63
2440,0.58,-0.14,0.83,-0.7,-0.7,-0.7
2460,0.57,-0.14,0.83,-0.98,-1.05,-0.7
2480,0.57,-0.15,0.83,-0.63,-0.98,-0.63
2500,0.58,-0.15,0.83,0.0,-1.19,-0.84
2520,0.58,-0.15,0.83,0.56,-1.26,-0.28
2540,0.58,-0.15,0.83,0.42,-0.84,-0.14
2560,0.58,-0.15,0.83,0.56,-0.77,0.21
2580,0.58,-0.15,0.83,2.1,-0.42,0.35
2600,0.59,-0.15,0.83,3.71,-1.19,0.56
2620,0.58,-0.14,0.82,3.5,-0.42,0.91
2640,0.57,-0.14,0.83,3.08,-1.33,0.21
2660,0.58,-0.14,0.83,2.59,-0.7,0.21
2680,0.58,-0.14,0.83,2.8,0.07,0.42
2700,0.58,-0.14,0.83,2.73,0.77,0.14
2720,0.58,-0.14,0.83,2.87,0.49,0.07
2740,0.57,-0.14,0.83,1.96,0.14,-0.42
2760,0.58,-0.14,0.83,1.89,-0.14,-0.56
2780,0.58,-0.14,0.83,1.54,-0.28,-0.49
2800,0.57,-0.14,0.83,2.1,-0.63,-0.56
2820,0.58,-0.14,0.83,1.47,0.07,-0.49
2840,0.57,-0.14,0.83,1.96,0.49,-0.21
2860,0.57,-0.14,0.83,2.03,0.07,-0.56
2880,0.57,-0.14,0.83,1.89,-0.21,-0.21
2900,0.57,-0.14,0.83,2.31,0.0,0.07
2920,0.57,-0.14,0.83,1.54,-0.42,0.07
2940,0.57,-0.14,0.84,2.24,-0.28,0.21
2960,0.57,-0.13,0.83,1.82,-0.42,0.14
2980,0.58,-0.13,0.83,1.68,-0.35,-0.14
3000,0.57,-0.13,0.83,1.54,-0.42,-0.14
3020,0.57,-0.13,0.83,1.12,-0.63,0.21
3040,0.57,-0.14,0.84,0.91,-0.77,0.56
3060,0.57,-0.14,0.84,0.35,-0.49,0.77
3080,0.57,-0.14,0.83,0.56,-0.63,1.05
3100,0.57,-0.14,0.83,0.63,-1.75,1.33
3120,0.57,-0.14,0.84,-0.63,-2.45,1.19
3140,0.57,-0.14,0.83,-1.61,-2.66,1.26
3160,0.57,-0.14,0.84,-0.98,-2.73,1.19
3180,0.57,-0.14,0.84,-1.54,-2.73,0.77
3200,0.57,-0.14,0.83,-0.98,-2.66,0.42
3220,0.57,-0.14,0.83,-0.35,-2.59,0.84
3240,0.58,-0.14,0.83,-0.77,-2.24,0.91
3260,0.57,-0.14,0.83,-0.14,-2.8,0.98
3280,0.58,-0.14,0.83,-0.21,-2.87,0.98
3300,0.58,-0.15,0.83,0.28,-2.59,1.19
3320,0.58,-0.14,0.83,0.0,-1.54,1.47
3340,0.58,-0.14,0.83,0.28,-1.33,1.61
3360,0.58,-0.14,0.83,0.28,-1.26,1.61
3380,0.58,-0.14,0.83,0.07,-1.12,1.61
3400,0.57,-0.14,0.83,0.63,-1.75,1.33
3420,0.58,-0.14,0.83,0.56,-1.54,0.84
3440,0.57,-0.14,0.83,0.28,-1.33,0.28
3460,0.58,-0.15,0.83,-0.42,-1.26,-0.21
3480,0.58,-0.14,0.83,-0.21,-0.7,-0.35
3500,0.58,-0.15,0.83,-0.28,-1.12,-0.28
3520,0.58,-0.15,0.83,-0.14,-0.84,-0.14
3540,0.58,-0.16,0.83,0.35,-1.12,-0.14
3560,0.58,-0.15,0.83,0.63,-0.98,0.63
3580,0.58,-0.15,0.83,1.05,-1.26,0.77
3600,0.58,-0.15,0.83,0.7,-1.19,0.91
3620,0.58,-0.14,0.83,0.56,-1.05,0.7
3640,0.58,-0.15,0.83,0.77,-1.12,0.56
3660,0.57,-0.15,0.83,0.63,-1.19,0.42
3680,0.58,-0.15,0.83,0.63,-1.33,0.07
3700,0.58,-0.15,0.83,1.05,-1.12,-0.14
3720,0.58,-0.15,0.83,4.13,-0.07,0.42
3740,0.58,-0.15,0.83,3.57,-0.42,0.84
3760,0.57,-0.15,0.82,3.01,-1.12,0.28
3780,0.57,-0.15,0.83,2.66,-1.05,-0.14
3800,0.58,-0.15,0.83,2.52,-1.19,0.21
3820,0.58,-0.14,0.83,2.31,0.07,-0.07
3840,0.58,-0.14,0.83,2.59,0.07,-0.14
3860,0.57,-0.15,0.83,2.17,-0.91,-0.77
3880,0.57,-0.14,0.83,1.96,-1.33,-1.05
3900,0.58,-0.14,0.83,1.96,-0.98,-0.63
3920,0.57,-0.15,0.83,2.1,-0.7,-0.35
3940,0.58,-0.14,0.83,1.96,-0.56,-0.21
3960,0.57,-0.14,0.83,2.45,-0.7,-0.14
3980,0.58,-0.14,0.83,2.45,-0.63,-0.07
4000,0.58,-0.14,0.83,2.59,-0.28,-0.07
4020,0.58,-0.14,0.83,2.17,-0.07,-0.14
4040,0.57,-0.14,0.83,2.1,-0.49,-0.28
4060,0.58,-0.14,0.83,1.89,-0.21,-0.56
4080,0.58,-0.14,0.83,2.03,-0.21,-0.21
4100,0.57,-0.14,0.83,1.26,-0.07,-0.21
4120,0.57,-0.14,0.83,0.42,0.14,0.28
4140,0.57,-0.14,0.83,-0.56,0.21,0.63
4160,0.57,-0.14,0.83,0.14,-0.63,0.7
4180,0.57,-0.15,0.83,0.28,-1.54,1.12
4200,0.57,-0.14,0.83,0.14,-2.31,0.84
4220,0.57,-0.14,0.83,-0.28,-2.59,1.12
4240,0.57,-0.14,0.83,-0.63,-2.52,1.05
4260,0.57,-0.14,0.83,-0.63,-2.52,1.05
4280,0.57,-0.15,0.83,-0.56,-2.24,1.12
4300,0.58,-0.14,0.83,0.42,-2.66,0.91
4320,0.58,-0.14,0.83,0.14,-2.31,1.05
4340,0.58,-0.14,0.83,-0.49,-1.61,0.77
4360,0.58,-0.14,0.83,0.28,-2.03,1.33
4380,0.58,-0.14,0.83,0.35,-1.89,1.4
4400,0.58,-0.14,0.83,0.0,-1.89,0.98
4420,0.58,-0.14,0.83,0.35,-1.89,1.05
4440,0.58,-0.14,0.83,0.0,-1.96,0.84
4460,0.58,-0.15,0.83,-0.07,-1.82,0.56
4480,0.58,-0.15,0.83,-0.14,-1.68,0.91
4500,0.57,-0.15,0.83,0.0,-1.96,0.7
4520,0.58,-0.16,0.83,0.49,-3.43,0.84
4540,0.58,-0.16,0.83,0.42,-2.87,0.84
4560,0.58,-0.15,0.83,1.4,-2.66,1.75
4580,0.58,-0.15,0.83,1.61,-3.15,2.24
4600,0.59,-0.15,0.83,1.75,-2.52,2.38
4620,0.58,-0.15,0.82,2.94,-2.38,2.59
4640,0.58,-0.16,0.83,2.45,-2.66,2.24
4660,0.6,-0.15,0.82,0.77,-0.14,2.87
4680,0.6,-0.14,0.82,1.4,1.12,3.71
4700,0.59,-0.14,0.82,1.61,1.33,4.76
4720,0.58,-0.14,0.83,1.33,1.4,5.32
4740,0.58,-0.14,0.83,3.71,-0.14,5.04
4760,0.58,-0.14,0.83,4.97,-1.05,3.92
4780,0.56,-0.15,0.83,3.22,-1.4,2.87
4800,0.57,-0.15,0.83,2.73,-1.61,1.61
4820,0.57,-0.14,0.83,1.47,-1.05,0.14
4840,0.58,-0.15,0.83,0.91,-0.77,-0.7
4860,0.57,-0.16,0.83,1.47,-0.56,-0.84
4880,0.57,-0.16,0.83,1.89,-1.4,-0.77
4900,0.57,-0.16,0.83,2.03,-2.73,-0.14
4920,0.58,-0.15,0.82,1.47,-3.08,0.63
4940,0.58,-0.16,0.82,1.75,-2.94,1.47
4960,0.59,-0.15,0.82,2.17,-2.52,1.4
4980,0.59,-0.15,0.82,2.87,-2.31,1.47
5000,0.58,-0.15,0.82,2.52,-1.47,1.12
5020,0.59,-0.15,0.82,1.82,-1.33,0.21
5040,0.59,-0.15,0.82,1.68,-0.63,-0.07
5060,0.58,-0.14,0.82,2.45,-0.56,0.07
5080,0.58,-0.14,0.82,2.1,-0.98,-0.91
5100,0.58,-0.15,0.82,1.4,-0.84,-1.82
5120,0.58,-0.15,0.82,1.61,-0.28,-1.82
5140,0.58,-0.15,0.83,0.91,0.98,-1.96
5160,0.58,-0.15,0.82,0.42,1.75,-1.68
5180,0.58,-0.15,0.83,0.35,1.89,-0.91
5200,0.57,-0.16,0.83,1.33,0.84,-0.84
5220,0.58,-0.15,0.83,1.19,0.42,0.14
5240,0.58,-0.15,0.83,1.19,0.42,0.42
5260,0.58,-0.14,0.83,0.42,0.14,0.0
5280,0.57,-0.15,0.83,0.07,-0.35,-0.28
5300,0.57,-0.14,0.83,-0.07,-0.42,-0.84
5320,0.58,-0.14,0.83,-0.28,0.0,-1.47
5340,0.58,-0.14,0.83,-0.56,0.0,-1.61
5360,0.58,-0.14,0.83,-0.56,0.7,-1.61
5380,0.57,-0.15,0.83,0.07,0.56,-1.26
5400,0.57,-0.14,0.83,0.14,0.28,-1.12
5420,0.58,-0.14,0.83,0.21,0.21,-0.91
5440,0.58,-0.14,0.83,0.14,0.35,-0.49
5460,0.57,-0.14,0.83,0.35,0.28,-0.56
5480,0.57,-0.14,0.83,0.14,0.28,-0.42
5500,0.57,-0.14,0.83,0.42,0.21,-0.07
5520,0.57,-0.14,0.83,0.63,-0.14,-0.21
5540,0.57,-0.14,0.83,-0.28,-0.07,-0.35
5560,0.57,-0.14,0.83,0.77,0.0,0.07
5580,0.58,-0.14,0.85,0.14,1.54,-0.56
5600,0.58,-0.15,0.86,-0.21,4.55,-1.75
5620,0.61,-0.16,0.88,-2.94,9.8,-4.83
5640,0.62,-0.19,0.86,2.31,14.77,-11.48
5660,0.6,-0.17,0.85,6.16,19.04,-16.66
5680,0.62,-0.14,0.84,9.8,22.47,-16.52
5700,0.64,-0.14,0.85,11.06,28.49,-14.91
5720,0.65,-0.09,0.82,12.46,34.65,-17.36
5740,0.65,-0.03,0.8,7.91,48.51,-17.71
5760,0.67,0.0,0.81,-4.34,60.9,-15.26
5780,0.67,-0.04,0.87,-8.61,73.71,-13.72
5800,0.57,-0.07,0.89,-6.3,84.63,-23.17
5820,0.5,-0.06,0.88,-14.77,86.59,-33.46
5840,0.47,-0.09,0.9,-25.62,86.73,-42.07
5860,0.46,-0.1,0.89,-30.38,81.97,-51.17
5880,0.47,-0.12,0.91,-33.46,77.7,-51.03
5900,0.42,-0.12,0.94,-31.36,77.35,-52.5
5920,0.33,-0.1,0.9,-38.85,67.97,-58.31
5940,0.38,-0.09,0.88,-53.2,57.89,-68.11
5960,0.48,-0.11,0.92,-61.53,73.71,-88.2
5980,0.59,-0.13,1.11,-49.63,133.28,-144.27
6000,0.06,-0.14,1.06,-21.98,166.74,-153.65
6020,-0.08,0.0,0.88,-36.68,97.51,-145.95
6040,-0.15,-0.12,0.93,-51.38,45.92,-159.39
6060,-0.09,-0.25,0.92,-65.73,15.12,-160.3
6080,0.06,-0.36,0.97,-78.96,26.32,-160.16
6100,0.1,-0.46,0.96,-91.77,42.7,-157.22
6120,0.1,-0.43,0.94,-86.03,41.93,-160.79
6140,0.08,-0.37,0.91,-80.99,31.5,-159.32
6160,0.11,-0.4,0.9,-91.84,11.34,-157.85
6180,0.16,-0.51,0.89,-99.96,18.27,-141.82
6200,0.16,-0.58,0.88,-83.65,19.6,-122.43
6220,0.16,-0.57,0.85,-80.64,9.38,-105.49
6240,0.16,-0.5,0.79,-79.1,4.55,-96.46
6260,0.22,-0.48,0.79,-82.95,-1.19,-97.23
6280,0.33,-0.54,0.81,-94.29,4.34,-101.85
6300,0.39,-0.63,0.85,-75.25,25.97,-91.77
6320,0.39,-0.63,0.79,-42.7,40.25,-78.19
6340,0.37,-0.57,0.76,-33.18,43.54,-70.07
6360,0.39,-0.5,0.74,-31.15,55.58,-70.42
6380,0.36,-0.53,0.79,-32.97,59.36,-81.34
6400,0.26,-0.67,0.86,14.49,58.59,-75.74
6420,0.22,-0.69,0.81,29.26,55.23,-68.95
6440,0.19,-0.67,0.86,42.0,41.93,-57.12
6460,0.17,-0.64,0.89,59.99,46.41,-42.28
6480,0.16,-0.56,0.87,41.93,24.29,-33.18
6500,0.17,-0.55,0.93,35.21,10.64,-24.71
6520,0.2,-0.5,0.94,36.47,21.07,-12.18
6540,0.17,-0.49,0.93,40.74,28.84,-1.12
6560,0.15,-0.41,0.96,56.49,38.78,6.09
6580,0.04,-0.25,0.78,65.31,34.58,10.29
6600,0.06,-0.24,0.81,64.61,16.59,-12.46
6620,0.09,-0.34,0.84,22.75,1.26,-28.77
6640,0.1,-0.37,0.96,3.57,-16.59,-21.84
6660,0.16,-0.35,0.99,-12.81,-14.7,-22.12
6680,0.23,-0.34,0.99,-30.31,-7.07,-26.11
6700,0.28,-0.4,0.95,-23.73,13.02,-19.32
6720,0.24,-0.43,0.9,-20.23,28.98,-9.1
