timestamp,accX,accY,accZ,gyrX,gyrY,gyrZ
0,0.72,-0.38,0.61,1.4,0.49,0.84
20,0.72,-0.38,0.61,2.24,0.63,0.7
40,0.72,-0.38,0.61,2.03,0.35,0.63
60,0.72,-0.38,0.61,2.17,0.14,1.19
80,0.72,-0.37,0.61,1.26,0.14,1.19
100,0.71,-0.37,0.61,0.91,-0.49,0.91
120,0.72,-0.37,0.61,2.38,-0.63,1.12
140,0.72,-0.37,0.61,1.75,-0.14,0.84
160,0.71,-0.38,0.61,1.54,0.0,0.98
180,0.72,-0.38,0.61,2.38,-0.7,1.05
200,0.71,-0.37,0.61,1.89,-0.14,0.91
220,0.71,-0.37,0.61,2.17,0.07,1.47
240,0.71,-0.38,0.61,2.1,-0.63,1.33
260,0.72,-0.38,0.62,1.89,-0.56,0.77
280,0.71,-0.37,0.61,2.52,-0.21,1.19
300,0.71,-0.37,0.61,3.08,-0.07,1.12
320,0.71,-0.37,0.61,3.29,-0.21,1.05
340,0.71,-0.37,0.61,2.87,-1.12,0.63
360,0.71,-0.37,0.61,1.19,-2.1,0.28
380,0.71,-0.38,0.61,0.77,-2.94,0.0
400,0.72,-0.37,0.61,0.0,-3.29,-0.07
420,0.72,-0.37,0.62,-0.42,-2.59,-0.28
440,0.72,-0.38,0.62,-1.12,-1.96,-1.19
460,0.72,-0.38,0.62,-0.84,-1.19,-0.98
480,0.71,-0.37,0.61,-0.63,-1.89,-0.84
500,0.71,-0.37,0.61,-0.77,-2.59,-0.49
520,0.72,-0.38,0.62,-1.68,-2.38,-0.21
540,0.72,-0.38,0.62,-0.7,-2.8,-0.77
560,0.71,-0.37,0.61,-0.91,-2.38,-0.21
580,0.71,-0.37,0.61,0.21,-3.29,0.35
600,0.72,-0.38,0.61,-0.21,-3.36,0.63
620,0.72,-0.37,0.61,-1.19,-2.45,-0.14
640,0.72,-0.37,0.61,-1.54,-1.68,-0.28
660,0.72,-0.37,0.61,-1.47,-1.89,-0.42
680,0.72,-0.38,0.61,-2.66,-2.24,-0.91
700,0.72,-0.37,0.61,-2.17,-1.47,-0.56
720,0.72,-0.37,0.61,-2.1,-1.75,-0.42
740,0.72,-0.38,0.61,-3.22,-1.89,-1.05
760,0.72,-0.38,0.6,-2.87,-1.47,-0.49
780,0.72,-0.37,0.61,-1.4,-2.8,-0.56
800,0.73,-0.38,0.61,-2.24,-1.61,0.07
820,0.72,-0.38,0.6,-3.36,-1.19,-0.49
840,0.72,-0.38,0.6,-2.66,-1.75,-0.77
860,0.72,-0.38,0.6,-1.05,-1.89,0.0
880,0.72,-0.38,0.6,-0.77,-1.89,0.35
900,0.72,-0.38,0.6,0.49,-2.1,0.63
920,0.72,-0.38,0.63,0.91,-1.19,0.49
940,0.73,-0.37,0.61,2.45,0.98,1.05
960,0.73,-0.38,0.6,1.19,1.19,0.07
980,0.72,-0.38,0.6,1.12,1.05,-0.7
1000,0.71,-0.37,0.6,1.89,1.75,-0.07
1020,0.72,-0.37,0.61,2.87,0.56,0.21
1040,0.72,-0.38,0.61,2.03,0.14,0.77
1060,0.72,-0.38,0.6,2.1,-0.28,0.77
1080,0.73,-0.37,0.62,2.1,-0.98,-0.14
1100,0.72,-0.38,0.61,1.96,0.42,0.56
1120,0.71,-0.38,0.61,1.82,1.4,0.07
1140,0.71,-0.38,0.61,2.52,0.63,0.49
1160,0.71,-0.38,0.61,2.87,-0.28,0.98
1180,0.72,-0.37,0.61,2.31,-0.63,1.26
1200,0.71,-0.37,0.61,2.17,-0.56,1.05
1220,0.71,-0.37,0.61,1.96,0.07,1.12
1240,0.72,-0.37,0.62,2.31,-0.21,0.7
1260,0.72,-0.38,0.61,0.91,0.0,0.28
1280,0.71,-0.37,0.61,1.47,-0.7,0.98
1300,0.72,-0.37,0.61,1.12,-0.42,0.98
1320,0.71,-0.37,0.62,1.75,0.42,0.84
1340,0.71,-0.37,0.61,2.1,0.49,1.47
1360,0.71,-0.37,0.61,1.4,-0.28,0.7
1380,0.71,-0.38,0.62,3.57,-0.98,1.19
1400,0.71,-0.37,0.61,2.52,-0.42,1.05
1420,0.71,-0.37,0.61,2.38,-0.35,1.26
1440,0.71,-0.38,0.62,3.43,-2.38,1.47
1460,0.71,-0.38,0.61,2.31,-3.08,1.05
1480,0.71,-0.38,0.61,1.12,-4.06,0.77
1500,0.71,-0.37,0.61,0.07,-4.48,0.28
1520,0.72,-0.37,0.62,-0.07,-4.27,-0.21
1540,0.71,-0.37,0.62,-0.56,-3.92,-0.84
1560,0.72,-0.37,0.62,-1.61,-3.5,-0.7
1580,0.72,-0.37,0.61,-0.91,-2.8,-0.07
1600,0.72,-0.37,0.61,-1.26,-2.24,-0.7
1620,0.72,-0.38,0.61,-0.98,-2.03,-0.63
1640,0.71,-0.37,0.61,-0.56,-2.1,-0.14
1660,0.72,-0.37,0.62,-0.21,-2.24,-0.42
1680,0.72,-0.38,0.61,-1.19,-2.1,-0.7
1700,0.71,-0.38,0.61,-1.33,-1.61,-0.56
1720,0.72,-0.37,0.61,-2.17,-1.61,-0.07
1740,0.72,-0.37,0.61,-1.54,-1.4,-0.14
1760,0.72,-0.37,0.61,-2.1,-1.33,-0.77
1780,0.72,-0.38,0.61,-2.24,-2.03,-0.63
1800,0.72,-0.37,0.61,-2.31,-1.61,0.0
1820,0.72,-0.38,0.61,-1.4,-1.4,-0.14
1840,0.73,-0.38,0.61,-2.31,-2.24,-0.63
1860,0.72,-0.37,0.61,-2.03,-1.82,-0.07
1880,0.72,-0.37,0.61,-2.73,-1.33,0.0
1900,0.72,-0.38,0.6,-2.38,-1.26,-0.35
1920,0.72,-0.38,0.61,-2.38,-1.4,-0.21
1940,0.72,-0.38,0.6,-3.22,-1.89,-0.14
1960,0.72,-0.38,0.61,-2.87,-2.03,0.0
1980,0.72,-0.38,0.6,-2.03,-3.5,-0.42
2000,0.72,-0.39,0.6,-1.89,-2.03,-0.28
2020,0.72,-0.38,0.6,-1.4,-1.19,0.63
2040,0.72,-0.38,0.6,-0.28,-1.89,0.49
2060,0.72,-0.38,0.6,0.56,-2.52,0.7
2080,0.72,-0.38,0.6,1.33,-2.31,0.56
2100,0.72,-0.38,0.62,1.19,-0.91,0.77
2120,0.73,-0.37,0.6,3.57,1.68,0.63
2140,0.73,-0.38,0.6,2.1,0.42,-0.28
2160,0.71,-0.38,0.6,2.17,0.14,0.0
2180,0.72,-0.38,0.6,2.45,0.0,-0.07
2200,0.72,-0.38,0.61,2.31,-0.28,0.42
2220,0.72,-0.38,0.6,2.45,-0.35,0.56
2240,0.72,-0.37,0.61,2.1,-0.84,0.7
2260,0.72,-0.37,0.61,1.61,-0.42,0.42
2280,0.72,-0.38,0.6,3.01,-0.42,0.35
2300,0.72,-0.38,0.61,1.4,0.14,0.21
2320,0.72,-0.37,0.61,1.26,1.12,0.77
2340,0.72,-0.37,0.61,2.38,0.35,0.84
2360,0.71,-0.38,0.61,1.96,0.35,0.84
2380,0.72,-0.37,0.61,1.19,0.42,0.35
2400,0.71,-0.37,0.61,1.26,0.14,0.91
2420,0.71,-0.38,0.61,1.19,-0.35,0.63
2440,0.72,-0.38,0.61,0.49,-0.21,0.56
2460,0.71,-0.37,0.61,1.54,-0.42,0.84
2480,0.72,-0.38,0.61,2.17,-0.84,1.19
2500,0.72,-0.38,0.61,2.03,-0.35,1.12
2520,0.71,-0.37,0.61,2.31,-0.63,1.26
2540,0.72,-0.37,0.62,2.1,-1.54,1.19
2560,0.72,-0.38,0.62,1.47,-0.98,1.26
2580,0.71,-0.37,0.62,2.45,-1.19,1.05
2600,0.72,-0.37,0.61,1.54,-0.42,0.91
2620,0.71,-0.37,0.61,1.12,-0.56,0.77
2640,0.71,-0.37,0.61,2.17,-0.35,0.49
2660,0.71,-0.37,0.61,2.1,0.56,0.56
2680,0.71,-0.37,0.61,3.36,-0.84,1.05
2700,0.71,-0.38,0.61,1.47,-1.4,0.84
2720,0.7,-0.39,0.6,3.15,-5.6,2.31
2740,0.69,-0.37,0.62,4.62,-10.36,4.9
2760,0.71,-0.37,0.62,3.64,-12.32,2.73
2780,0.71,-0.39,0.62,0.84,-15.68,4.2
2800,0.74,-0.37,0.62,-3.29,-13.44,4.55
2820,0.74,-0.36,0.62,-2.94,-9.17,0.98
2840,0.72,-0.36,0.61,-2.24,-7.98,-0.98
2860,0.73,-0.37,0.6,-5.04,-8.05,-0.77
2880,0.75,-0.36,0.6,-8.89,-6.23,-4.9
2900,0.75,-0.36,0.6,-12.25,0.42,-7.42
2920,0.73,-0.37,0.59,-10.43,0.84,-6.51
2940,0.73,-0.39,0.59,-9.52,-0.84,-7.63
2960,0.73,-0.39,0.59,-8.47,0.0,-6.09
2980,0.74,-0.36,0.6,-9.94,0.91,-6.79
3000,0.75,-0.36,0.6,-11.69,4.41,-8.89
3020,0.72,-0.38,0.58,-11.69,3.15,-8.54
3040,0.72,-0.39,0.57,-10.15,0.77,-9.1
3060,0.73,-0.39,0.57,-9.38,1.61,-8.96
3080,0.73,-0.39,0.57,-8.54,1.19,-8.33
3100,0.73,-0.39,0.57,-5.39,-0.07,-6.58
3120,0.73,-0.39,0.57,-4.55,-0.77,-6.16
3140,0.73,-0.39,0.58,-3.01,-1.12,-5.25
3160,0.73,-0.4,0.57,-2.17,-2.87,-3.64
3180,0.74,-0.39,0.57,-1.54,-5.18,-2.94
3200,0.74,-0.39,0.58,-1.26,-4.97,-2.66
3220,0.74,-0.39,0.58,0.42,-3.85,-2.24
3240,0.74,-0.39,0.58,1.89,-3.5,-1.26
3260,0.75,-0.37,0.58,2.17,-1.61,-1.61
3280,0.75,-0.37,0.58,1.96,-0.49,-0.84
3300,0.74,-0.37,0.57,1.05,0.91,-0.35
3320,0.74,-0.37,0.57,0.49,0.49,-0.63
3340,0.74,-0.36,0.57,0.0,-0.07,-0.63
3360,0.74,-0.36,0.58,-0.77,-0.7,0.21
3380,0.75,-0.37,0.59,-0.49,-0.49,0.07
3400,0.75,-0.37,0.58,-0.56,0.14,-0.28
3420,0.75,-0.36,0.58,-0.14,1.26,-1.26
3440,0.74,-0.37,0.58,-1.4,0.98,-1.33
3460,0.74,-0.38,0.58,0.49,0.56,0.07
3480,0.74,-0.37,0.58,0.84,0.49,0.35
3500,0.74,-0.37,0.58,1.12,-0.14,0.14
3520,0.74,-0.37,0.58,0.98,-0.56,1.05
3540,0.74,-0.38,0.59,2.8,-1.33,2.03
3560,0.75,-0.37,0.58,2.66,-0.35,2.03
3580,0.74,-0.37,0.58,2.45,-0.35,1.89
3600,0.74,-0.37,0.59,1.47,-0.77,1.4
3620,0.74,-0.37,0.59,1.82,-0.7,1.05
3640,0.74,-0.38,0.59,2.66,-0.7,1.4
3660,0.74,-0.37,0.59,1.89,-0.35,1.33
3680,0.73,-0.37,0.58,1.12,0.0,1.33
3700,0.74,-0.37,0.58,1.61,-0.42,1.26
3720,0.73,-0.37,0.59,1.96,-0.77,0.77
3740,0.73,-0.37,0.59,2.87,-0.42,1.19
3760,0.74,-0.38,0.58,2.8,-0.49,1.12
3780,0.73,-0.38,0.58,3.57,-3.08,1.19
3800,0.73,-0.37,0.58,1.61,-3.71,1.89
3820,0.74,-0.37,0.59,1.61,-3.85,1.68
3840,0.74,-0.37,0.59,0.07,-4.55,0.14
3860,0.74,-0.37,0.58,-0.42,-3.29,-0.49
3880,0.74,-0.37,0.59,0.14,-3.43,0.14
3900,0.74,-0.37,0.58,-0.77,-4.2,0.21
3920,0.74,-0.37,0.58,-1.89,-4.2,-0.42
3940,0.74,-0.37,0.58,-0.91,-4.06,-0.35
3960,0.75,-0.37,0.58,-1.19,-2.94,-0.28
3980,0.75,-0.38,0.58,-0.77,-1.89,-0.07
4000,0.74,-0.37,0.57,-0.98,-2.17,-0.14
4020,0.75,-0.37,0.58,-0.98,-1.05,0.0
4040,0.74,-0.38,0.58,-1.33,-1.47,0.21
4060,0.74,-0.38,0.58,-1.75,-1.54,-0.14
4080,0.74,-0.37,0.58,-1.68,-1.61,-0.21
4100,0.74,-0.37,0.58,-1.96,-2.1,0.84
4120,0.75,-0.37,0.58,-2.1,-1.75,0.7
4140,0.75,-0.37,0.58,-2.1,-1.54,-0.84
4160,0.74,-0.38,0.58,-2.1,-1.33,-0.56
4180,0.74,-0.38,0.58,-1.26,-1.68,0.07
4200,0.74,-0.5,0.58,-2.45,-1.89,-0.42
4220,0.74,-0.38,0.58,-1.89,-2.31,-0.35
4240,0.75,-0.38,0.58,-1.89,-3.01,-0.07
4260,0.74,-0.38,0.57,-1.33,-2.59,0.42
4280,0.74,-0.38,0.57,-1.61,-3.15,0.63
4300,0.74,-0.37,0.57,-1.4,-4.27,0.14
4320,0.75,-0.38,0.58,-0.91,-3.64,0.91
4340,0.75,-0.38,0.57,-0.14,-2.59,0.56
4360,0.75,-0.38,0.57,-1.33,-2.31,0.0
4380,0.74,-0.38,0.57,0.14,-2.73,0.63
4400,0.75,-0.38,0.57,-0.7,-2.73,0.49
4420,0.75,-0.38,0.57,0.14,-2.38,1.12
4440,0.74,-0.38,0.57,2.73,-1.33,1.12
4460,0.74,-0.37,0.58,3.36,-0.07,0.98
4480,0.75,-0.37,0.57,3.15,0.42,0.91
4500,0.75,-0.38,0.57,1.47,0.07,0.49
4520,0.74,-0.38,0.57,1.82,0.63,0.42
4540,0.75,-0.38,0.57,1.05,0.77,-0.28
4560,0.75,-0.38,0.58,1.89,0.84,-0.07
4580,0.75,-0.38,0.57,1.89,0.49,0.28
4600,0.74,-0.37,0.57,1.61,-0.98,0.7
4620,0.75,-0.37,0.57,1.05,-1.05,0.49
4640,0.75,-0.4,0.59,1.89,-3.5,0.14
4660,0.77,-0.37,0.59,1.26,-0.56,3.43
4680,0.74,-0.33,0.6,-1.26,-0.42,1.47
4700,0.73,-0.35,0.59,-2.1,1.54,-2.73
4720,0.74,-0.38,0.56,0.77,4.55,-3.36
4740,0.74,-0.39,0.56,2.17,3.78,-2.17
4760,0.74,-0.38,0.56,1.68,3.92,-1.4
4780,0.74,-0.38,0.57,0.77,3.08,-2.45
4800,0.74,-0.39,0.57,-0.56,1.61,-1.4
4820,0.75,-0.39,0.58,-0.77,1.33,-0.28
4840,0.73,-0.39,0.58,-1.05,0.49,0.56
4860,0.73,-0.38,0.58,0.91,0.28,1.75
4880,0.74,-0.37,0.58,2.87,-0.56,1.89
4900,0.74,-0.37,0.59,3.01,-1.47,2.38
4920,0.76,-0.36,0.6,1.4,0.49,1.4
4940,0.73,-0.37,0.58,2.17,1.89,0.07
4960,0.72,-0.39,0.57,3.64,0.21,0.91
4980,0.73,-0.37,0.58,3.92,-1.75,1.96
5000,0.74,-0.37,0.59,2.45,-2.31,2.31
5020,0.74,-0.37,0.59,0.28,-1.96,0.84
5040,0.73,-0.39,0.58,2.8,-1.96,0.49
5060,0.73,-0.39,0.58,2.59,-3.71,1.54
5080,0.73,-0.37,0.58,0.35,-7.0,1.61
5100,0.74,-0.37,0.59,-1.33,-7.49,0.56
5120,0.75,-0.37,0.59,0.0,-4.69,0.42
5140,0.76,-0.38,0.59,-1.4,-3.01,-0.28
5160,0.75,-0.37,0.58,-1.61,-0.7,-1.33
5180,0.75,-0.37,0.57,-1.96,-0.21,-2.24
5200,0.73,-0.38,0.57,-0.84,-0.98,-0.49
5220,0.73,-0.39,0.58,0.7,-3.99,1.26
5240,0.75,-0.38,0.58,-0.84,-3.57,1.12
5260,0.74,-0.36,0.58,-1.68,-3.57,1.33
5280,0.74,-0.37,0.58,0.21,-3.85,1.82
5300,0.74,-0.37,0.59,-0.98,-3.78,1.54
5320,0.76,-0.37,0.58,-4.62,-2.66,0.0
5340,0.73,-0.38,0.58,-1.68,-0.56,0.77
5360,0.74,-0.39,0.57,-0.28,-0.91,0.0
5380,0.74,-0.38,0.57,-2.1,-3.78,0.84
5400,0.73,-0.37,0.57,0.07,-6.51,1.47
5420,0.74,-0.38,0.58,0.49,-7.35,1.12
5440,0.75,-0.39,0.57,0.63,-6.93,1.05
5460,0.74,-0.38,0.57,1.89,-6.65,2.17
5480,0.75,-0.38,0.58,2.59,-6.09,2.45
5500,0.76,-0.38,0.58,1.26,-4.06,1.82
5520,0.75,-0.38,0.57,2.59,-2.87,1.26
5540,0.75,-0.37,0.58,1.89,-1.47,1.26
5560,0.77,-0.36,0.57,0.56,0.84,0.63
5580,0.74,-0.37,0.56,1.47,0.28,-0.21
5600,0.74,-0.38,0.56,1.89,1.33,-0.91
5620,0.75,-0.38,0.55,0.91,1.26,-0.7
5640,0.74,-0.38,0.57,2.38,-2.03,1.05
5660,0.75,-0.38,0.58,2.52,-2.1,0.84
5680,0.76,-0.37,0.58,1.68,-0.91,0.07
5700,0.75,-0.37,0.57,2.94,0.84,0.07
5720,0.75,-0.39,0.57,2.45,2.17,-0.35
5740,0.74,-0.38,0.57,1.54,2.17,-0.35
5760,0.74,-0.38,0.57,1.26,1.26,-0.14
5780,0.75,-0.38,0.57,1.19,0.42,0.21
5800,0.75,-0.38,0.58,0.63,0.56,0.28
5820,0.74,-0.38,0.57,1.75,0.35,0.77
5840,0.74,-0.38,0.58,1.89,0.28,0.56
5860,0.74,-0.38,0.58,2.59,0.63,1.05
5880,0.74,-0.37,0.58,4.76,-0.49,1.05
5900,0.75,-0.37,0.58,2.31,0.7,0.98
5920,0.74,-0.37,0.58,1.19,0.84,1.26
5940,0.74,-0.37,0.58,1.75,-0.28,1.54
5960,0.74,-0.37,0.58,1.47,-0.14,1.19
5980,0.74,-0.38,0.58,1.47,-0.7,0.84
6000,0.74,-0.38,0.58,1.19,-0.42,0.98
6020,0.73,-0.38,0.58,2.66,-1.05,1.47
6040,0.74,-0.38,0.57,3.64,-1.82,1.96
6060,0.73,-0.38,0.57,3.15,-3.64,1.26
6080,0.73,-0.38,0.58,3.36,-4.48,1.89
6100,0.75,-0.38,0.58,2.38,-4.34,1.26
6120,0.75,-0.37,0.58,0.91,-4.2,0.28
6140,0.74,-0.37,0.58,-0.14,-4.55,-0.14
6160,0.74,-0.38,0.57,-0.28,-4.97,-0.14
6180,0.74,-0.38,0.58,1.47,-4.9,0.14
6200,0.75,-0.37,0.58,-0.14,-3.5,-0.35
6220,0.75,-0.37,0.58,-1.47,-3.08,-0.7
6240,0.75,-0.38,0.57,-1.26,-2.73,-0.35
6260,0.75,-0.37,0.57,-1.26,-2.45,0.0
6280,0.75,-0.37,0.58,-1.47,-2.17,-0.14
6300,0.75,-0.37,0.57,-1.47,-1.96,-0.63
6320,0.75,-0.38,0.57,-0.91,-1.54,-0.35
6340,0.75,-0.38,0.57,-1.19,-1.26,-0.35
6360,0.74,-0.37,0.57,-1.33,-1.89,-0.63
6380,0.75,-0.37,0.57,-1.82,-1.47,-0.42
6400,0.75,-0.38,0.57,-1.61,-1.89,-0.49
6420,0.75,-0.38,0.57,-1.96,-1.96,-0.98
6440,0.75,-0.37,0.57,-2.52,-1.75,-0.77
6460,0.75,-0.38,0.57,-1.19,-1.89,0.0
6480,0.75,-0.38,0.57,-0.91,-3.36,-0.07
6500,0.75,-0.38,0.57,-1.4,-2.73,0.21
6520,0.75,-0.38,0.57,-1.89,-1.96,0.49
6540,0.75,-0.37,0.57,-1.33,-2.03,0.07
6560,0.75,-0.38,0.57,-1.68,-3.08,-0.14
6580,0.75,-0.38,0.57,-0.63,-2.94,0.07
6600,0.75,-0.37,0.57,0.14,-1.89,-0.14
6620,0.75,-0.38,0.57,-0.35,-1.33,-0.14
6640,0.75,-0.38,0.56,0.91,-1.26,0.14
6660,0.75,-0.38,0.56,0.84,-1.96,0.21
6680,0.75,-0.37,0.58,1.82,-0.91,0.42
6700,0.76,-0.37,0.57,1.96,0.35,0.91
6720,0.76,-0.38,0.57,0.91,0.42,-0.28
6740,0.75,-0.38,0.56,17.78,1.4,-0.63
6760,0.74,-0.38,0.56,1.68,1.26,-0.28
6780,0.75,-0.38,0.57,2.73,0.07,0.14
6800,0.75,-0.37,0.57,0.84,0.07,0.35
6820,0.75,-0.37,0.57,0.07,0.07,0.77
6840,0.75,-0.38,0.57,1.68,-0.84,0.84
6860,0.75,-0.38,0.57,1.61,0.21,0.7
6880,0.75,-0.37,0.57,2.1,0.21,0.7
6900,0.75,-0.38,0.57,1.89,-0.07,0.63
6920,0.74,-0.38,0.57,1.19,-0.35,0.56
6940,0.75,-0.38,0.57,1.89,-0.28,1.4
6960,0.75,-0.37,0.57,1.26,-0.07,1.05
6980,0.74,-0.37,0.58,1.26,0.07,0.28
7000,0.74,-0.38,0.57,1.75,-0.28,0.91
7020,0.75,-0.38,0.58,1.26,-0.28,0.63
7040,0.75,-0.38,0.57,0.91,0.7,0.35
7060,0.74,-0.38,0.57,2.38,0.28,1.4
7080,0.75,-0.37,0.58,3.08,-0.14,1.33
7100,0.75,-0.38,0.57,1.33,0.21,0.84
7120,0.74,-0.38,0.58,0.84,0.0,1.26
7140,0.74,-0.38,0.57,1.61,-0.21,1.12
7160,0.74,-0.37,0.57,1.54,-0.07,0.98
7180,0.74,-0.37,0.58,1.82,-0.42,0.91
7200,0.74,-0.38,0.58,1.82,-0.14,0.63
7220,0.74,-0.37,0.57,2.24,0.0,0.7
7240,0.73,-0.38,0.57,3.78,-1.19,1.19
7260,0.73,-0.38,0.57,3.64,-2.59,1.26
7280,0.74,-0.38,0.58,3.29,-3.99,1.33
7300,0.74,-0.37,0.59,1.75,-4.41,1.12
7320,0.75,-0.37,0.58,-0.28,-4.76,-0.35
7340,0.74,-0.37,0.58,-1.05,-4.76,-1.05
7360,0.75,-0.37,0.58,-0.7,-4.34,-0.98
7380,0.75,-0.37,0.58,-0.56,-3.85,-0.91
7400,0.75,-0.38,0.57,-0.63,-2.8,-0.35
7420,0.75,-0.37,0.57,-0.84,-1.96,-0.14
7440,0.75,-0.37,0.57,-1.19,-2.24,-0.21
7460,0.75,-0.37,0.57,-0.91,-2.87,-0.07
7480,0.75,-0.37,0.57,-0.98,-2.66,-0.07
7500,0.75,-0.37,0.58,0.0,-2.66,0.28
7520,0.75,-0.37,0.57,-1.12,-2.31,-0.21
7540,0.75,-0.37,0.57,-3.43,-3.22,-0.21
7560,0.75,-0.38,0.57,-2.24,-3.15,-0.07
7580,0.75,-0.37,0.57,-1.82,-2.45,-0.49
7600,0.75,-0.37,0.57,-1.61,-1.61,-0.14
7620,0.75,-0.38,0.57,-2.52,-1.68,-0.63
7640,0.75,-0.38,0.57,-2.8,-1.4,-0.91
7660,0.75,-0.38,0.57,-3.15,-1.26,-0.91
7680,0.75,-0.38,0.56,-1.12,-2.52,-0.28
7700,0.75,-0.38,0.56,-1.33,-2.03,0.28
7720,0.75,-0.38,0.57,-1.75,-1.82,0.14
7740,0.75,-0.38,0.56,-1.33,-2.38,0.35
7760,0.75,-0.38,0.56,-0.14,-2.45,0.7
7780,0.75,-0.38,0.56,-0.28,-3.08,0.42
7800,0.75,-0.38,0.56,-0.56,-3.01,0.28
7820,0.75,-0.38,0.56,-0.35,-2.66,0.49
7840,0.75,-0.38,0.56,0.07,-2.8,0.56
7860,0.76,-0.38,0.57,0.49,-1.96,0.42
7880,0.75,-0.38,0.56,1.89,-1.54,0.63
7900,0.75,-0.37,0.58,2.87,0.42,0.77
7920,0.76,-0.37,0.57,2.73,1.19,0.98
7940,0.75,-0.38,0.56,0.56,0.42,-0.28
7960,0.75,-0.38,0.56,0.98,0.7,0.0
7980,0.75,-0.37,0.56,2.94,0.14,0.28
8000,0.76,-0.38,0.57,1.19,-0.35,0.28
8020,0.75,-0.38,0.57,1.68,0.07,0.77
8040,0.75,-0.37,0.57,1.05,-0.07,0.63
8060,0.75,-0.38,0.56,0.91,0.35,0.14
8080,0.75,-0.38,0.57,0.98,-0.07,-0.14
8100,0.75,-0.38,0.57,1.26,0.28,0.56
8120,0.75,-0.38,0.57,1.47,-0.28,0.35
8140,0.75,-0.38,0.57,1.4,0.21,0.35
8160,0.75,-0.38,0.57,1.61,0.28,0.56
8180,0.75,-0.38,0.57,1.19,-0.14,0.77
8200,0.75,-0.38,0.57,1.61,-0.21,0.28
8220,0.75,-0.38,0.57,1.4,0.0,0.63
8240,0.75,-0.38,0.58,1.33,0.0,0.77
8260,0.75,-0.37,0.57,1.26,0.77,0.42
8280,0.74,-0.37,0.57,2.73,-17.22,1.05
8300,0.75,-0.37,0.57,1.68,0.21,0.84
8320,0.75,-0.38,0.57,1.47,0.56,0.77
8340,0.75,-0.38,0.58,2.1,0.14,1.05
8360,0.75,-0.37,0.57,1.4,-0.21,1.12
8380,0.74,-0.37,0.57,1.19,-0.35,0.77
8400,0.74,-0.37,0.57,1.54,-0.42,0.77
8420,0.74,-0.37,0.57,2.31,-0.35,1.12
8440,0.74,-0.38,0.57,3.15,-0.7,1.05
8460,0.74,-0.38,0.57,2.66,-1.12,1.05
8480,0.74,-0.38,0.57,2.45,-1.61,0.77
8500,0.74,-0.38,0.57,1.96,-3.92,0.42
8520,0.75,-0.37,0.59,1.26,-3.29,0.28
8540,0.75,-0.37,0.58,0.07,-3.22,-0.28
8560,0.75,-0.37,0.58,-0.84,-2.59,-0.7
8580,0.75,-0.37,0.58,0.91,-2.52,-0.49
8600,0.75,-0.37,0.57,-0.35,-2.45,-0.14
8620,0.75,-0.37,0.58,-1.68,-2.38,-0.63
8640,0.75,-0.37,0.58,-1.05,-2.31,-0.7
8660,0.74,-0.37,0.57,-1.26,-2.38,-0.42
8680,0.75,-0.38,0.57,-0.56,-3.22,-0.14
8700,0.75,-0.38,0.57,-1.47,-3.01,-0.63
8720,0.75,-0.37,0.57,-1.19,-2.52,-0.49
8740,0.75,-0.38,0.57,-1.12,-2.45,0.0
8760,0.75,-0.37,0.57,-1.54,-2.03,-0.21
8780,0.75,-0.38,0.57,-0.98,-1.47,-0.28
8800,0.75,-0.37,0.56,-0.63,-2.1,-0.28
8820,0.75,-0.37,0.57,-2.45,-2.31,-0.56
8840,0.75,-0.38,0.57,-1.47,-2.45,-0.35
8860,0.75,-0.38,0.57,-1.61,-2.52,-0.7
8880,0.75,-0.37,0.57,-1.47,-1.89,-0.63
8900,0.75,-0.38,0.56,-1.89,-2.1,0.07
8920,0.75,-0.38,0.57,-3.01,-3.29,-0.63
8940,0.75,-0.38,0.57,-1.68,-2.24,-0.14
8960,0.75,-0.38,0.56,-1.12,-2.1,0.28
8980,0.76,-0.38,0.56,-2.03,-2.73,0.07
9000,0.76,-0.38,0.56,-1.19,-2.59,0.07
9020,0.76,-0.38,0.57,-1.19,-2.17,0.0
9040,0.75,-0.38,0.56,-1.89,-2.03,-0.35
9060,0.75,-0.38,0.56,-1.26,-1.89,-0.14
9080,0.76,-0.38,0.57,17.78,-0.35,-0.63
9100,0.76,-0.38,0.56,-0.07,0.84,-1.89
9120,0.75,-0.39,0.56,0.63,-0.49,-2.87
9140,0.76,-0.39,0.56,1.61,-0.21,-2.03
9160,0.76,-0.39,0.57,4.41,0.77,-1.4
9180,0.76,-0.37,0.58,4.27,1.68,-1.61
9200,0.76,-0.36,0.57,2.87,2.38,-1.26
9220,0.75,-0.37,0.56,2.31,3.64,-1.61
9240,0.74,-0.37,0.56,3.5,1.82,-0.42
9260,0.75,-0.36,0.57,2.31,1.82,-0.28
9280,0.75,-0.36,0.57,1.75,2.1,0.14
9300,0.75,-0.37,0.57,-0.14,1.68,-0.21
9320,0.75,-0.37,0.58,-0.42,0.7,-0.77
9340,0.75,-0.37,0.57,0.0,0.7,-0.21
9360,0.75,-0.37,0.57,0.7,0.42,0.21
9380,0.75,-0.37,0.58,1.54,0.28,0.35
9400,0.75,-0.37,0.57,1.47,0.49,0.49
9420,0.75,-0.36,0.57,2.1,-0.35,0.7
9440,0.75,-0.37,0.58,1.89,-0.28,0.7
9460,0.75,-0.37,0.58,2.17,0.0,0.98
9480,0.75,-0.37,0.58,3.36,-0.35,0.77
9500,0.75,-0.36,0.57,1.75,0.35,1.19
9520,0.75,-0.37,0.58,1.47,0.77,1.19
9540,0.75,-0.37,0.58,0.91,0.77,0.77
9560,0.75,-0.37,0.58,1.12,0.56,1.26
9580,0.74,-0.37,0.58,1.61,0.28,1.33
9600,0.75,-0.37,0.58,1.12,0.28,0.56
9620,0.75,-0.37,0.58,1.19,0.21,0.63
9640,0.74,-0.37,0.58,1.75,-0.42,1.05
9660,0.75,-0.37,0.59,1.4,0.07,0.56
9680,0.75,-0.37,0.58,0.98,0.21,0.91
9700,0.74,-0.36,0.58,2.45,0.28,1.4
9720,0.74,-0.36,0.58,2.87,-0.63,1.33
9740,0.74,-0.37,0.59,3.29,-0.91,1.05
9760,0.74,-0.38,0.58,2.73,-2.03,0.49
9780,0.73,-0.37,0.58,2.03,-3.29,0.35
9800,0.74,-0.36,0.59,0.98,-3.85,0.28
9820,0.75,-0.37,0.59,-1.4,-3.43,-0.35
9840,0.74,-0.37,0.59,-1.54,-3.36,-0.91
9860,0.74,-0.37,0.59,-0.84,-2.66,-0.56
9880,0.75,-0.37,0.58,-0.91,-2.38,-0.42
9900,0.74,-0.37,0.58,-0.49,-3.01,0.0
9920,0.74,-0.37,0.58,-1.05,-3.5,0.35
9940,0.74,-0.37,0.58,-0.21,-6.65,2.38
9960,0.74,-0.36,0.59,-1.19,-7.0,2.73
9980,0.75,-0.37,0.58,-0.98,-5.39,1.33
10000,0.75,-0.37,0.57,-0.63,-4.69,0.56
10020,0.75,-0.36,0.57,-3.22,-4.69,-0.63
10040,0.75,-0.37,0.57,-2.52,-2.73,0.21
10060,0.75,-0.38,0.57,-2.66,-3.36,0.56
10080,0.76,-0.37,0.57,-3.78,-2.66,-0.91
10100,0.76,-0.37,0.57,-5.11,-1.19,-1.33
10120,0.75,-0.37,0.57,-3.15,0.63,-0.7
10140,0.75,-0.38,0.56,-3.22,-0.56,-1.26
10160,0.75,-0.38,0.56,-2.52,-0.98,-0.21
10180,0.75,-0.37,0.57,-1.33,-1.47,1.12
10200,0.75,-0.37,0.57,-1.96,-2.03,0.77
10220,0.75,-0.38,0.57,-2.38,-2.24,-0.42
10240,0.75,-0.38,0.57,-0.98,-2.52,0.42
10260,0.75,-0.38,0.57,-0.28,-2.24,0.77
10280,0.75,-0.38,0.57,-0.21,-2.17,0.84
10300,0.75,-0.37,0.56,0.56,-2.24,0.7
10320,0.75,-0.37,0.57,1.12,-2.31,0.7
10340,0.75,-0.37,0.58,2.24,-1.05,0.63
10360,0.76,-0.37,0.58,2.73,1.05,0.84
10380,0.75,-0.37,0.56,2.03,0.63,-0.42
10400,0.74,-0.38,0.57,0.98,0.98,-0.14
10420,0.75,-0.37,0.56,1.05,1.26,-0.14
10440,0.75,-0.38,0.57,1.33,0.07,0.07
10460,0.75,-0.38,0.57,2.03,0.14,0.77
10480,0.75,-0.37,0.57,1.19,-0.49,0.42
10500,0.75,-0.38,0.57,1.54,-0.42,0.0
10520,0.75,-0.38,0.57,1.47,-0.56,-0.14
10540,0.75,-0.37,0.57,2.1,-0.7,0.56
10560,0.75,-0.37,0.57,2.03,-0.91,0.84
10580,0.75,-0.37,0.57,1.47,-0.49,0.63
10600,0.75,-0.38,0.57,2.24,-0.28,0.98
10620,0.75,-0.37,0.57,2.1,-0.14,0.7
10640,0.75,-0.37,0.58,1.82,0.0,0.35
10660,0.76,-0.37,0.58,0.98,0.35,0.21
10680,0.76,-0.37,0.58,1.47,2.03,-1.54
10700,0.75,-0.37,0.57,1.54,4.41,-2.94
10720,0.75,-0.38,0.57,1.47,5.25,-3.29
10740,0.75,-0.38,0.57,2.03,4.13,-2.31
10760,0.74,-0.38,0.57,1.89,3.22,-1.54
10780,0.74,-0.37,0.58,0.35,2.24,0.07
10800,0.74,-0.36,0.59,0.91,2.17,1.12
10820,0.74,-0.36,0.59,0.7,1.82,0.77
10840,0.74,-0.36,0.59,1.33,1.96,0.49
10860,0.74,-0.37,0.59,2.03,1.68,0.63
10880,0.73,-0.36,0.59,2.1,0.7,0.63
10900,0.74,-0.36,0.59,2.31,-0.21,0.7
10920,0.73,-0.38,0.58,2.94,-1.47,0.98
10940,0.72,-0.38,0.59,3.5,-3.99,1.12
10960,0.74,-0.37,0.59,2.66,-4.76,1.26
10980,0.74,-0.37,0.59,1.54,-5.11,0.7
11000,0.74,-0.37,0.59,-0.07,-5.81,0.14
11020,0.74,-0.36,0.59,-1.33,-5.39,-0.21
11040,0.74,-0.37,0.59,-0.91,-5.88,-0.35
11060,0.75,-0.36,0.58,-1.75,-5.53,-0.56
11080,0.75,-0.36,0.58,-2.8,-4.97,-0.63
11100,0.75,-0.36,0.58,-1.4,-4.9,0.07
11120,0.75,-0.37,0.58,-1.75,-4.27,-0.7
11140,0.75,-0.37,0.57,-0.56,-3.71,-0.28
11160,0.75,-0.37,0.58,-0.49,-3.36,0.28
11180,0.75,-0.36,0.57,0.0,-2.38,0.21
11200,0.76,-0.37,0.58,0.35,-1.12,-0.28
11220,0.76,-0.36,0.59,0.14,1.4,0.07
11240,0.76,-0.36,0.57,2.38,2.03,0.7
11260,0.75,-0.37,0.58,-0.28,2.45,-0.49
11280,0.74,-0.37,0.57,2.1,2.52,-0.91
11300,0.74,-0.36,0.58,0.7,2.66,-0.7
11320,0.75,-0.36,0.58,0.56,2.52,0.0
11340,0.75,-0.37,0.58,1.54,1.33,0.14
11360,0.74,-0.37,0.58,1.61,1.54,0.21
11380,0.74,-0.36,0.58,1.12,0.77,0.14
11400,0.74,-0.36,0.58,1.05,0.28,0.91
11420,0.74,-0.37,0.59,1.05,0.0,0.42
11440,0.74,-0.37,0.59,1.33,0.14,0.77
11460,0.74,-0.36,0.59,1.19,0.21,0.77
11480,0.74,-0.37,0.59,1.19,-0.21,0.63
11500,0.74,-0.36,0.59,1.54,0.0,1.05
11520,0.74,-0.36,0.59,1.4,-0.21,1.12
11540,0.74,-0.36,0.59,1.12,-0.56,0.35
11560,0.73,-0.36,0.59,1.33,-0.63,0.56
11580,0.74,-0.37,0.58,3.01,-1.4,0.56
11600,0.74,-0.38,0.59,2.66,-1.61,0.63
11620,0.73,-0.37,0.58,1.68,-3.15,0.84
11640,0.74,-0.36,0.58,1.47,-4.48,0.84
11660,0.75,-0.36,0.59,1.05,-5.25,0.7
11680,0.75,-0.37,0.59,0.14,-4.97,0.56
11700,0.74,-0.36,0.59,-0.56,-4.9,0.0
11720,0.75,-0.36,0.59,-1.12,-4.27,-0.49
11740,0.75,-0.36,0.58,-1.4,-3.92,-0.7
11760,0.75,-0.36,0.58,-1.47,-3.36,-0.7
11780,0.75,-0.36,0.58,-2.8,-2.03,-1.26
11800,0.75,-0.37,0.58,-2.94,-1.61,-1.4
11820,0.75,-0.37,0.57,-1.68,-1.54,-1.05
11840,0.75,-0.36,0.58,-2.03,-1.47,-0.77
11860,0.75,-0.37,0.58,-2.17,-1.82,-0.7
11880,0.75,-0.37,0.57,-1.96,-1.47,-1.33
11900,0.75,-0.37,0.58,-1.89,-1.26,-0.63
11920,0.75,-0.37,0.57,-1.96,-1.33,-0.21
11940,0.75,-0.37,0.58,-1.12,-2.03,0.14
11960,0.75,-0.36,0.58,-1.75,-1.82,-0.07
11980,0.75,-0.36,0.58,-0.84,-1.19,-0.21
12000,0.75,-0.37,0.57,0.14,-1.12,0.14
12020,0.75,-0.37,0.58,0.21,-1.75,0.35
12040,0.75,-0.36,0.58,-0.14,-2.17,0.14
12060,0.75,-0.36,0.58,0.63,-1.54,0.35
12080,0.75,-0.37,0.59,1.05,-0.77,0.21
12100,0.76,-0.36,0.57,1.82,0.91,0.98
12120,0.75,-0.36,0.57,1.33,0.0,0.63
12140,0.74,-0.36,0.58,1.47,0.91,0.21
12160,0.75,-0.36,0.58,1.33,0.98,-0.07
12180,0.75,-0.37,0.58,0.77,0.21,-0.28
12200,0.75,-0.37,0.58,1.19,0.14,0.49
12220,0.75,-0.36,0.58,1.4,0.0,0.91
12240,0.75,-0.37,0.58,1.68,-0.77,0.21
12260,0.74,-0.37,0.58,2.38,-0.07,0.7
12280,0.75,-0.36,0.58,1.68,-0.35,1.05
12300,0.75,-0.36,0.58,1.68,-0.49,1.05
12320,0.75,-0.37,0.58,1.05,-0.42,0.35
12340,0.74,-0.36,0.58,1.75,0.56,0.77
12360,0.75,-0.36,0.58,2.1,-0.14,1.05
12380,0.75,-0.36,0.58,1.33,0.14,0.56
12400,0.75,-0.37,0.59,1.4,0.21,0.63
12420,0.74,-0.36,0.58,1.12,0.56,0.98
12440,0.74,-0.36,0.59,1.33,0.14,0.28
12460,0.74,-0.37,0.59,0.91,0.0,0.7
12480,0.75,-0.37,0.59,1.75,-0.07,0.28
12500,0.74,-0.36,0.58,1.26,0.63,0.21
12520,0.74,-0.36,0.58,2.24,0.07,1.12
12540,0.74,-0.37,0.59,3.15,-1.26,1.19
12560,0.74,-0.37,0.58,2.31,-1.61,0.84
12580,0.74,-0.36,0.58,1.82,-2.45,0.7
12600,0.74,-0.36,0.59,1.54,-3.71,0.7
12620,0.74,-0.36,0.59,0.84,-4.34,0.28
12640,0.75,-0.36,0.59,-0.77,-3.99,-0.56
12660,0.75,-0.36,0.59,-0.63,-3.29,-0.35
12680,0.74,-0.36,0.59,-1.05,-3.22,-0.63
12700,0.74,-0.37,0.59,-1.26,-3.22,-0.56
12720,0.75,-0.36,0.58,-1.61,-3.08,-0.77
12740,0.75,-0.36,0.58,-1.82,-3.22,-0.7
12760,0.75,-0.36,0.59,-1.4,-2.17,-0.63
12780,0.75,-0.37,0.58,-1.05,-1.89,-0.98
12800,0.74,-0.36,0.58,-1.26,-1.82,-0.63
12820,0.75,-0.36,0.58,-0.98,-1.33,0.0
12840,0.75,-0.37,0.58,-1.89,-2.1,-0.63
12860,0.75,-0.37,0.58,-3.22,-1.89,-0.77
12880,0.75,-0.36,0.58,-1.54,-1.26,-0.28
12900,0.75,-0.36,0.58,-1.12,-1.33,-0.28
12920,0.75,-0.37,0.58,-1.26,-1.33,-0.42
12940,0.75,-0.36,0.58,-1.89,-1.4,-0.49
12960,0.75,-0.36,0.58,-2.24,-1.68,-0.49
12980,0.75,-0.37,0.58,-1.26,-2.17,-0.21
13000,0.75,-0.37,0.58,-1.89,-2.17,-0.07
13020,0.75,-0.37,0.58,-0.77,-1.26,0.14
13040,0.75,-0.36,0.57,-0.98,-1.4,-0.07
13060,0.75,-0.37,0.58,-0.91,-1.68,-0.14
13080,0.75,-0.37,0.57,0.63,-2.73,0.21
13100,0.75,-0.37,0.57,-1.54,-2.24,-0.07
13120,0.75,-0.36,0.57,-1.33,-1.75,0.35
13140,0.75,-0.36,0.57,-0.42,-2.87,0.42
13160,0.75,-0.37,0.58,-0.63,-2.38,0.35
13180,0.75,-0.37,0.57,0.49,-2.03,0.42
13200,0.75,-0.37,0.57,1.89,-1.47,0.7
13220,0.75,-0.36,0.59,2.38,-0.21,1.05
13240,0.76,-0.36,0.57,2.87,1.4,1.19
13260,0.75,-0.37,0.57,1.54,0.21,0.28
13280,0.74,-0.36,0.57,1.82,0.56,0.14
13300,0.75,-0.36,0.57,1.4,0.77,-0.14
13320,0.75,-0.37,0.58,1.54,0.28,0.21
13340,0.75,-0.37,0.58,1.33,0.07,0.21
13360,0.75,-0.36,0.58,1.96,-0.14,0.35
13380,0.75,-0.36,0.58,1.4,-0.14,-0.14
13400,0.75,-0.37,0.57,1.4,0.0,0.07
13420,0.75,-0.37,0.58,1.12,0.35,0.35
13440,0.75,-0.36,0.58,1.82,0.07,0.7
13460,0.75,-0.37,0.58,1.54,0.28,0.56
13480,0.75,-0.37,0.58,1.05,0.07,0.28
13500,0.75,-0.37,0.58,1.33,0.0,0.77
13520,0.74,-0.36,0.58,1.4,-0.21,0.77
13540,0.75,-0.37,0.58,1.47,-0.63,0.49
13560,0.75,-0.36,0.59,0.98,-0.49,0.35
13580,0.75,-0.36,0.58,1.19,0.07,0.7
13600,0.75,-0.36,0.58,1.47,0.0,0.63
13620,0.74,-0.36,0.58,0.63,0.07,0.28
13640,0.74,-0.36,0.59,1.26,0.14,0.77
13660,0.74,-0.36,0.58,1.82,-0.21,0.77
13680,0.75,-0.36,0.59,2.03,-0.28,0.28
13700,0.74,-0.37,0.59,0.7,-0.42,0.56
13720,0.74,-0.37,0.59,0.63,0.42,0.7
13740,0.74,-0.36,0.58,1.75,0.07,0.56
13760,0.74,-0.36,0.58,2.03,-0.63,0.98
13780,0.74,-0.37,0.59,2.31,-0.98,0.98
13800,0.74,-0.37,0.59,2.31,-1.33,0.84
13820,0.74,-0.36,0.58,1.47,-1.4,0.35
13840,0.74,-0.36,0.58,0.98,-2.8,0.63
13860,0.74,-0.36,0.59,-0.28,-3.36,-0.07
13880,0.75,-0.37,0.59,-0.07,-2.59,-0.21
13900,0.75,-0.36,0.59,0.07,-1.68,-0.14
13920,0.74,-0.35,0.59,-0.21,-1.68,0.0
13940,0.74,-0.36,0.59,-0.77,-1.4,-0.21
13960,0.75,-0.36,0.58,-0.56,-1.47,-0.28
13980,0.74,-0.36,0.59,1.05,-2.45,-0.77
14000,0.74,-0.36,0.59,-0.98,-1.75,-0.7
14020,0.75,-0.37,0.58,-1.47,-1.12,-0.49
14040,0.74,-0.36,0.58,-0.21,-1.4,-0.21
14060,0.74,-0.36,0.58,0.28,-1.47,0.21
14080,0.74,-0.37,0.58,-0.28,-1.96,0.0
14100,0.74,-0.37,0.58,-0.21,-2.1,0.14
14120,0.75,-0.36,0.58,-0.98,-1.82,0.0
14140,0.74,-0.36,0.58,-0.42,-2.24,0.28
14160,0.75,-0.36,0.58,-0.21,-1.96,-0.07
14180,0.75,-0.36,0.59,-0.63,-2.1,-0.21
14200,0.75,-0.37,0.58,0.14,-2.03,0.28
14220,0.75,-0.36,0.58,-0.42,-2.17,-0.07
14240,0.75,-0.37,0.58,-0.98,-2.45,-0.49
14260,0.75,-0.37,0.58,-1.12,-1.75,0.0
14280,0.74,-0.36,0.58,0.0,-2.24,0.07
14300,0.75,-0.36,0.58,-1.54,-3.15,-0.49
14320,0.75,-0.37,0.58,-2.8,-2.94,-0.56
14340,0.75,-0.37,0.58,-0.77,-2.52,0.07
14360,0.75,-0.36,0.58,-0.84,-2.31,-0.07
14380,0.75,-0.36,0.58,-0.98,-1.96,0.14
14400,0.75,-0.36,0.58,-1.54,-1.68,-0.21
14420,0.74,-0.37,0.57,-1.33,-1.89,-0.28
14440,0.75,-0.37,0.58,-1.4,-1.47,-0.21
14460,0.75,-0.36,0.57,-1.26,-1.68,-0.28
14480,0.75,-0.37,0.57,-0.91,-1.82,0.0
14500,0.75,-0.36,0.57,-0.14,-1.33,0.0
14520,0.75,-0.37,0.57,1.89,-0.98,0.56
14540,0.75,-0.37,0.59,1.89,-0.21,0.56
14560,0.76,-0.36,0.57,1.54,0.7,0.7
14580,0.75,-0.37,0.57,1.68,0.49,0.07
14600,0.74,-0.36,0.57,0.84,0.14,0.21
14620,0.75,-0.36,0.58,0.84,1.33,0.35
14640,0.75,-0.37,0.58,0.98,0.07,0.35
14660,0.75,-0.37,0.58,0.0,0.21,-0.07
14680,0.74,-0.36,0.58,0.91,0.14,0.28
14700,0.75,-0.37,0.57,1.12,-0.7,0.56
14720,0.74,-0.38,0.58,3.36,-4.13,3.22
14740,0.74,-0.36,0.6,5.04,-5.46,4.55
14760,0.75,-0.35,0.6,4.27,-2.45,3.08
14780,0.76,-0.36,0.58,2.31,-0.07,0.98
14800,0.75,-0.37,0.57,2.24,-0.28,0.28
14820,0.74,-0.37,0.57,1.05,-1.05,0.49
14840,0.75,-0.37,0.58,0.28,-2.8,0.28
14860,0.76,-0.36,0.59,-0.63,-0.49,0.21
14880,0.76,-0.36,0.58,-1.05,1.19,-0.98
14900,0.75,-0.37,0.57,-2.17,3.29,-0.77
14920,0.74,-0.37,0.57,-2.24,1.68,-0.21
14940,0.75,-0.37,0.58,-1.47,0.91,0.63
14960,0.76,-0.36,0.59,-1.82,1.96,1.19
14980,0.75,-0.36,0.58,-2.03,3.64,-0.84
15000,0.74,-0.36,0.58,-0.7,4.13,-1.33
15020,0.74,-0.37,0.58,0.28,3.57,-0.91
15040,0.73,-0.37,0.58,0.98,2.03,-0.14
15060,0.74,-0.38,0.59,0.84,0.63,-0.07
15080,0.73,-0.37,0.58,-0.14,0.28,-0.07
15100,0.73,-0.37,0.59,-0.98,-2.17,0.35
15120,0.74,-0.37,0.59,-1.61,-3.22,-0.49
15140,0.74,-0.37,0.59,-1.05,-3.08,-0.77
15160,0.74,-0.37,0.59,-0.63,-3.15,0.14
15180,0.74,-0.37,0.59,0.28,-3.29,0.35
15200,0.74,-0.37,0.59,-0.84,-3.29,0.35
15220,0.74,-0.36,0.58,-1.33,-3.43,0.35
15240,0.74,-0.36,0.59,-0.7,-3.36,0.35
15260,0.75,-0.37,0.59,-0.56,-2.8,0.42
15280,0.75,-0.37,0.58,-1.05,-2.38,0.0
15300,0.74,-0.36,0.58,-1.33,-2.38,-0.35
15320,0.74,-0.37,0.58,-1.12,-2.73,0.0
15340,0.74,-0.37,0.58,-1.4,-2.87,-0.07
15360,0.75,-0.37,0.58,-1.68,-2.24,-0.21
15380,0.74,-0.37,0.58,-1.68,-2.1,-0.49
15400,0.75,-0.37,0.58,-1.47,-1.89,0.07
15420,0.75,-0.37,0.58,-2.24,-2.59,-0.07
15440,0.74,-0.37,0.57,-2.45,-3.29,0.28
15460,0.75,-0.37,0.57,-1.26,-3.57,0.77
15480,0.75,-0.38,0.58,-0.7,-2.8,0.0
15500,0.75,-0.37,0.57,-1.26,-1.89,0.14
15520,0.74,-0.37,0.57,-0.49,-1.33,0.7
15540,0.75,-0.37,0.57,-0.56,-2.8,0.21
15560,0.75,-0.38,0.57,-1.33,-2.66,0.21
15580,0.75,-0.5,0.57,-0.35,-2.17,0.21
15600,0.75,-0.37,0.57,0.28,-2.03,0.42
15620,0.75,-0.37,0.57,0.98,-2.17,0.63
15640,0.75,-0.38,0.57,2.1,-1.4,0.63
15660,0.87,-0.37,0.58,2.38,-0.28,0.77
15680,0.75,-0.37,0.57,1.82,0.63,0.98
15700,0.75,-0.37,0.57,0.7,-0.07,0.42
15720,0.75,-0.37,0.57,1.12,0.14,0.14
15740,0.75,-0.37,0.57,1.19,0.07,-0.07
15760,0.75,-0.37,0.58,1.12,0.49,0.14
15780,0.75,-0.37,0.57,2.59,-0.49,0.42
15800,0.75,-0.37,0.57,0.98,-0.63,0.21
15820,0.75,-0.37,0.57,0.21,0.0,0.21
15840,0.75,-0.37,0.57,1.75,-0.49,0.63
15860,0.75,-0.37,0.58,1.19,-0.21,0.84
15880,0.75,-0.38,0.58,0.56,-0.21,0.42
15900,0.74,-0.37,0.58,1.12,0.0,0.42
15920,0.74,-0.37,0.58,1.19,0.0,0.84
15940,0.74,-0.37,0.58,1.68,-0.21,0.98
15960,0.75,-0.37,0.58,1.68,-0.14,0.56
15980,0.74,-0.37,0.58,1.89,-0.28,0.7
16000,0.74,-0.37,0.58,1.47,-0.63,0.91
16020,0.75,-0.37,0.58,0.91,-0.28,0.56
16040,0.74,-0.37,0.58,1.19,-0.49,0.49
16060,0.74,-0.37,0.58,1.75,-0.77,0.84
16080,0.75,-0.37,0.58,3.22,-0.56,0.84
16100,0.74,-0.37,0.58,1.19,-0.28,0.42
16120,0.74,-0.37,0.58,1.26,-0.7,0.98
16140,0.74,-0.37,0.58,2.03,-0.42,0.91
16160,0.74,-0.37,0.58,1.61,0.07,0.84
16180,0.74,-0.37,0.58,2.8,-0.91,1.05
16200,0.74,-0.38,0.58,2.24,-0.63,0.56
16220,0.73,-0.38,0.58,2.52,-1.96,0.84
16240,0.74,-0.37,0.59,1.96,-3.01,0.7
16260,0.74,-0.37,0.58,0.42,-3.5,0.21
16280,0.74,-0.37,0.58,-1.19,-3.5,-0.21
16300,0.74,-0.5,0.58,-0.56,-2.87,0.0
16320,0.74,-0.37,0.58,0.28,-3.08,0.21
16340,0.75,-0.37,0.58,-0.28,-3.15,-0.21
16360,0.75,-0.37,0.58,-0.91,-3.22,-0.42
16380,0.75,-0.37,0.58,-0.14,-2.52,-0.56
16400,0.74,-0.37,0.58,-0.35,-2.66,-0.07
16420,0.75,-0.37,0.58,0.42,-1.4,0.35
16440,0.75,-0.37,0.57,-0.49,-2.45,-0.14
16460,0.75,-0.36,0.58,-0.63,-2.59,-0.21
16480,0.75,-0.37,0.58,-0.7,-1.82,0.0
16500,0.75,-0.37,0.57,-1.4,-1.68,-0.49
16520,0.74,-0.37,0.57,-1.61,-1.61,-0.28
16540,0.74,-0.37,0.57,-1.61,-2.24,-0.14
16560,0.75,-0.38,0.57,-2.38,-2.31,-0.35
16580,0.75,-0.37,0.58,-1.68,-1.82,-0.28
16600,0.74,-0.38,0.57,-1.47,-2.17,0.0
16620,0.75,-0.37,0.57,-1.68,-2.45,0.28
16640,0.75,-0.37,0.57,-1.96,-2.73,0.0
16660,0.75,-0.37,0.57,-1.33,-2.24,0.14
16680,0.75,-0.37,0.57,0.21,-2.59,-0.07
16700,0.75,-0.37,0.57,-1.26,-2.45,-0.07
16720,0.75,-0.37,0.57,-1.61,-1.75,0.14
16740,0.75,-0.37,0.57,-0.98,-1.75,0.0
16760,0.75,-0.37,0.57,-0.35,-1.68,-0.14
16780,0.75,-0.37,0.57,-0.56,-1.82,0.0
16800,0.75,-0.38,0.57,-0.63,-1.96,-0.14
16820,0.75,-0.38,0.57,-0.21,-1.68,0.42
16840,0.75,-0.37,0.57,1.19,-1.75,0.84
16860,0.75,-0.38,0.57,1.89,-1.33,0.7
16880,0.75,-0.38,0.58,2.38,-0.91,0.63
16900,0.76,-0.36,0.57,1.68,0.91,0.77
16920,0.75,-0.37,0.57,1.19,0.49,0.63
16940,0.75,-0.38,0.57,1.19,0.42,0.0
16960,0.75,-0.37,0.57,0.84,0.63,-0.35
16980,0.75,-0.37,0.57,2.1,-0.14,-0.07
17000,0.75,-0.38,0.57,0.98,0.0,0.28
17020,0.75,-0.37,0.57,0.14,0.56,0.14
17040,0.74,-0.37,0.57,1.19,0.49,0.0
17060,0.75,-0.37,0.57,0.98,0.14,0.0
17080,0.75,-0.37,0.58,0.77,0.42,0.14
17100,0.75,-0.37,0.58,0.91,0.84,0.56
17120,0.74,-0.37,0.57,0.77,0.28,0.28
17140,0.74,-0.37,0.58,1.47,-0.49,0.63
17160,0.75,-0.37,0.58,1.33,-0.28,0.7
17180,0.75,-0.37,0.58,1.47,0.21,0.63
17200,0.75,-0.37,0.58,1.61,0.14,0.56
17220,0.75,-0.37,0.58,0.98,0.0,0.77
17240,0.75,-0.37,0.58,1.33,-0.21,0.84
17260,0.74,-0.37,0.58,0.7,-0.28,0.35
17280,0.74,-0.37,0.58,2.24,-0.21,0.56
17300,0.75,-0.37,0.58,1.54,-0.14,0.7
17320,0.74,-0.37,0.58,1.26,0.35,0.84
17340,0.74,-0.37,0.58,1.61,-0.21,0.91
17360,0.74,-0.37,0.58,1.4,-0.35,0.77
17380,0.74,-0.37,0.58,1.68,-0.49,0.35
17400,0.74,-0.37,0.58,1.82,-0.42,0.63
17420,0.74,-0.37,0.58,2.45,-0.35,0.49
17440,0.74,-0.38,0.58,3.01,-1.26,0.91
17460,0.74,-0.38,0.58,2.45,-1.68,1.12
17480,0.74,-0.37,0.58,1.33,-2.8,0.77
17500,0.74,-0.37,0.58,1.4,-3.57,0.35
17520,0.74,-0.37,0.58,-0.21,-3.5,0.14
17540,0.75,-0.37,0.58,-0.49,-3.08,-0.14
17560,0.75,-0.37,0.58,-0.77,-2.66,-0.49
17580,0.75,-0.37,0.58,17.36,-2.66,-1.12
17600,0.75,-0.36,0.58,-0.49,-0.91,-1.33
17620,0.75,-0.37,0.58,-2.45,0.77,-2.87
17640,0.75,-0.38,0.57,-1.19,0.91,-3.15
17660,0.74,-0.37,0.57,-0.14,0.07,-0.84
17680,0.75,-0.36,0.59,0.63,-1.96,-1.26
17700,0.75,-0.37,0.59,-0.84,-0.28,-2.59
17720,0.74,-0.37,0.58,-0.91,0.35,-1.82
17740,0.74,-0.37,0.58,-0.77,0.42,-1.47
17760,0.75,-0.36,0.58,-0.21,0.98,-1.12
17780,0.74,-0.36,0.59,-0.63,0.07,-0.42
17800,0.74,-0.36,0.58,-2.17,-1.12,-0.77
17820,0.74,-0.37,0.58,-2.17,-0.56,-0.77
17840,0.74,-0.37,0.58,-0.21,-1.12,0.49
17860,0.74,-0.36,0.58,-1.26,-2.87,0.0
17880,0.74,-0.37,0.58,-1.47,-4.34,-0.28
17900,0.75,-0.37,0.58,-0.28,-3.78,1.05
17920,0.75,-0.37,0.58,-0.98,-3.43,1.12
17940,0.75,-0.37,0.58,-1.68,-3.5,0.35
17960,0.75,-0.37,0.57,-0.84,-2.59,0.56
17980,0.75,-0.37,0.57,-0.77,-2.94,0.28
18000,0.63,-0.37,0.57,-0.77,-2.45,0.7
18020,0.75,-0.37,0.57,-0.49,-2.66,0.63
18040,0.75,-0.37,0.57,-0.98,-2.03,-0.07
18060,0.75,-0.37,0.57,1.26,-1.68,0.77
18080,0.75,-0.37,0.57,1.61,-1.26,0.56
18100,0.75,-0.36,0.59,1.05,0.35,0.21
18120,0.75,-0.37,0.57,2.66,1.05,1.19
18140,0.75,-0.37,0.58,0.63,1.12,0.49
18160,0.74,-0.37,0.58,1.26,1.05,-0.14
18180,0.74,-0.37,0.58,1.12,0.42,-0.77
18200,0.75,-0.37,0.58,0.56,-0.07,0.28
18220,0.75,-0.37,0.58,1.12,17.22,0.91
18240,0.74,-0.37,0.58,1.82,0.0,0.56
18260,0.75,-0.37,0.58,0.21,0.42,0.56
18280,0.74,-0.37,0.58,1.54,-0.63,0.63
18300,0.75,-0.37,0.58,0.84,-0.14,0.7
18320,0.75,-0.37,0.58,0.98,0.14,0.63
18340,0.74,-0.37,0.58,1.26,0.21,0.42
18360,0.74,-0.36,0.58,1.54,-0.07,0.77
18380,0.74,-0.37,0.58,1.47,-0.35,0.7
18400,0.75,-0.37,0.58,0.98,-0.28,0.56
18420,0.75,-0.37,0.59,0.63,0.0,0.42
18440,0.74,-0.37,0.58,0.84,0.21,0.84
18460,0.74,-0.37,0.58,1.05,0.21,0.63
18480,0.74,-0.37,0.58,0.84,-0.77,0.35
18500,0.74,-0.37,0.58,1.26,-0.28,0.77
18520,0.74,-0.37,0.59,1.33,-0.07,1.12
18540,0.74,-0.37,0.59,1.4,-0.42,0.49
18560,0.74,-0.37,0.59,1.12,-0.14,1.05
18580,0.74,-0.36,0.58,1.61,-0.21,0.98
18600,0.74,-0.36,0.58,2.03,-1.19,0.7
18620,0.74,-0.37,0.59,2.45,-1.47,0.91
18640,0.74,-0.37,0.59,3.22,-1.12,1.19
18660,0.73,-0.37,0.59,2.87,-2.03,0.98
18680,0.73,-0.37,0.58,2.52,-2.59,0.98
18700,0.74,-0.36,0.59,1.82,-3.29,0.56
18720,0.74,-0.36,0.59,0.98,-3.71,-0.21
18740,0.74,-0.37,0.59,-0.56,-3.78,-0.49
18760,0.74,-0.37,0.59,-1.12,-3.64,-0.63
18780,0.74,-0.36,0.58,-0.7,-3.85,-0.42
18800,0.75,-0.36,0.58,-1.19,-3.15,-0.49
18820,0.75,-0.37,0.59,-1.61,-2.38,-0.49
18840,0.75,-0.37,0.58,-1.19,-1.96,-0.56
18860,0.74,-0.37,0.58,-0.63,-1.54,-0.07
18880,0.75,-0.36,0.58,-0.98,-1.75,-0.28
18900,0.75,-0.36,0.58,-1.05,-1.68,-0.7
18920,0.75,-0.37,0.59,-1.19,-1.47,-0.42
18940,0.75,-0.37,0.58,-1.61,-1.33,-0.7
18960,0.74,-0.37,0.58,-1.68,-1.05,-0.35
18980,0.75,-0.36,0.58,-1.33,-1.47,-0.28
19000,0.75,-0.38,0.58,-1.68,-1.75,-0.63
19020,0.74,-0.37,0.58,-2.24,-1.61,-0.56
19040,0.74,-0.37,0.58,-1.26,-1.33,-0.07
19060,0.75,-0.37,0.58,-2.1,-1.75,-0.14
19080,0.75,-0.37,0.58,-1.4,-1.82,-0.56
19100,0.75,-0.37,0.58,-1.33,-1.47,-0.14
19120,0.74,-0.37,0.58,0.35,-1.96,0.14
19140,0.74,-0.37,0.58,-0.84,-1.47,0.07
19160,0.75,-0.37,0.57,-0.91,-1.54,0.0
19180,0.74,-0.37,0.58,-1.05,-1.96,-0.07
19200,0.75,-0.37,0.58,-0.98,-2.52,-0.14
19220,0.75,-0.37,0.58,-1.47,-2.8,0.07
19240,0.75,-0.37,0.58,-0.84,-2.73,0.0
19260,0.75,-0.37,0.58,-1.12,-1.96,-0.07
19280,0.75,-0.37,0.57,-0.84,-2.31,0.28
19300,0.75,-0.38,0.57,-0.63,-2.45,0.49
19320,0.76,-0.37,0.57,-0.84,-2.03,0.07
19340,0.75,-0.37,0.57,-1.12,-1.75,0.0
19360,0.75,-0.37,0.57,0.28,-1.89,0.49
19380,0.75,-0.37,0.57,1.19,-2.03,0.35
19400,0.75,-0.37,0.57,2.45,-1.05,0.28
19420,0.75,-0.36,0.58,2.24,1.33,0.91
19440,0.75,-0.37,0.57,2.66,0.91,0.56
19460,0.75,-0.37,0.57,1.61,0.7,0.21
19480,0.74,-0.37,0.57,1.82,0.84,0.07
19500,0.75,-0.37,0.57,1.61,0.0,0.14
19520,0.75,-0.37,0.58,1.89,0.07,0.42
19540,0.75,-0.37,0.58,1.12,0.28,0.28
19560,0.74,-0.37,0.58,1.05,0.42,0.0
19580,0.74,-0.36,0.58,1.75,0.28,0.49
19600,0.75,-0.37,0.58,2.24,-0.35,0.56
19620,0.75,-0.37,0.58,1.54,-0.21,0.21
19640,0.75,-0.37,0.58,1.19,0.28,0.07
19660,0.74,-0.37,0.58,0.98,0.7,0.49
19680,0.74,-0.37,0.58,2.59,0.0,0.63
19700,0.74,-0.37,0.58,0.91,-0.21,0.14
19720,0.74,-0.37,0.58,0.84,0.42,0.56
19740,0.74,-0.37,0.58,1.54,-0.42,0.84
19760,0.74,-0.37,0.59,1.26,-0.28,0.56
19780,0.74,-0.37,0.58,1.82,0.07,0.77
19800,0.74,-0.37,0.58,1.47,-0.35,0.98
19820,0.74,-0.36,0.59,1.75,-0.98,0.84
19840,0.74,-0.37,0.59,1.12,-17.85,0.63
19860,0.74,-0.37,0.58,1.47,0.14,0.84
19880,0.74,-0.36,0.59,1.75,0.07,0.63
19900,0.74,-0.36,0.59,1.61,0.07,0.63
19920,0.74,-0.37,0.58,1.61,-0.63,0.63
19940,0.74,-0.37,0.59,1.61,-0.84,1.05
19960,0.74,-0.37,0.59,1.61,-0.14,0.91
19980,0.73,-0.36,0.58,2.24,-0.14,0.56
20000,0.74,-0.37,0.58,3.22,-0.7,1.4
20020,0.74,-0.37,0.59,2.73,-1.68,0.77
20040,0.74,-0.37,0.58,2.45,-2.17,0.56
20060,0.74,-0.37,0.59,2.17,-3.08,0.84
20080,0.74,-0.36,0.59,0.77,-3.92,0.42
20100,0.74,-0.37,0.59,-0.28,-2.94,-0.28
20120,0.74,-0.36,0.58,0.0,-2.87,-0.21
20140,0.74,-0.36,0.59,-0.21,-2.31,-0.14
20160,0.74,-0.37,0.59,-0.77,-2.38,-0.42
20180,0.74,-0.37,0.58,-0.98,-2.52,-0.63
20200,0.74,-0.36,0.58,-0.35,-2.52,0.0
20220,0.74,-0.37,0.59,-0.14,-2.8,0.07
20240,0.74,-0.37,0.58,-0.63,-2.59,-0.14
20260,0.74,-0.36,0.59,-0.42,-2.17,-0.14
20280,0.74,-0.36,0.58,17.08,-2.52,-0.21
20300,0.75,-0.37,0.59,-0.49,-1.75,-0.14
20320,0.74,-0.37,0.58,-2.03,-1.75,-0.42
20340,0.75,-0.36,0.58,-1.05,-2.24,-0.21
20360,0.75,-0.36,0.58,-0.84,-1.89,-0.21
20380,0.75,-0.37,0.58,-1.26,-2.03,-0.49
20400,0.75,-0.37,0.58,-0.91,-1.47,-0.42
20420,0.75,-0.37,0.58,-1.33,-1.26,-0.28
20440,0.75,-0.36,0.58,-1.68,-1.68,-0.77
20460,0.74,-0.37,0.58,-1.96,-1.54,-0.28
20480,0.75,-0.37,0.58,-1.26,-1.47,-0.14
20500,0.74,-0.37,0.58,-1.75,-1.61,-0.49
20520,0.75,-0.37,0.58,-0.98,-2.03,-0.14
20540,0.75,-0.37,0.58,-1.61,-2.73,0.0
20560,0.74,-0.36,0.58,-1.89,-2.31,0.0
20580,0.75,-0.37,0.58,-0.63,-2.45,-0.14
20600,0.75,-0.37,0.58,-1.33,-1.61,0.07
20620,0.75,-0.37,0.58,-1.68,-1.4,0.14
20640,0.75,-0.37,0.58,-1.75,-2.24,-0.35
20660,0.75,-0.37,0.57,-1.12,-1.96,-0.21
20680,0.74,-0.37,0.58,-0.35,-2.03,0.35
20700,0.75,-0.37,0.57,-0.35,-2.03,0.14
20720,0.75,-0.37,0.57,-0.49,-1.82,-0.14
20740,0.75,-0.37,0.57,-0.21,-1.47,0.21
20760,0.75,-0.37,0.58,0.0,-1.89,0.07
20780,0.75,-0.37,0.58,-0.35,-1.89,0.14
20800,0.75,-0.37,0.57,-0.07,-1.33,0.0
20820,0.75,-0.37,0.57,1.19,-1.05,0.63
20840,0.75,-0.37,0.58,2.66,0.14,1.05
20860,0.75,-0.37,0.57,3.01,0.35,0.84
20880,0.75,-0.37,0.57,2.38,0.14,0.07
20900,0.75,-0.36,0.57,1.33,0.63,-0.07
20920,0.74,-0.37,0.57,0.91,17.64,0.42
20940,0.75,-0.37,0.58,1.68,-0.35,0.35
20960,0.75,-0.37,0.58,1.33,-0.35,0.42
20980,0.75,-0.37,0.58,1.33,-0.14,0.35
21000,0.75,-0.37,0.58,1.33,0.0,0.35
21020,0.75,-0.37,0.58,0.98,-0.42,0.42
21040,0.75,-0.37,0.58,0.91,0.0,0.42
21060,0.75,-0.37,0.57,1.26,-0.14,0.84
21080,0.74,-0.36,0.58,1.12,-0.14,0.42
21100,0.75,-0.37,0.58,0.56,-17.78,0.84
21120,0.75,-0.37,0.58,1.05,0.07,0.84
21140,0.75,-0.37,0.58,0.42,0.7,0.21
21160,0.74,-0.37,0.58,1.26,1.12,0.35
21180,0.75,-0.37,0.59,0.98,1.33,0.0
21200,0.75,-0.37,0.59,0.84,2.87,-0.28
21220,0.76,-0.38,0.59,-0.7,5.18,-1.33
21240,0.75,-0.37,0.59,-0.49,5.74,-2.03
21260,0.75,-0.37,0.59,-0.77,7.28,-2.59
21280,0.76,-0.37,0.6,-1.82,8.75,-3.78
21300,0.75,-0.38,0.6,0.35,9.59,-5.46
21320,0.74,-0.38,0.6,0.91,11.48,-5.67
21340,0.73,-0.36,0.59,-0.56,13.02,-5.32
21360,0.72,-0.36,0.59,-0.91,10.78,-4.2
21380,0.71,-0.36,0.6,-0.63,7.98,-3.57
21400,0.74,-0.35,0.61,-1.68,8.68,-3.01
21420,0.72,-0.33,0.62,-0.42,12.25,-1.89
21440,0.73,-0.36,0.61,-0.56,10.92,-1.61
21460,0.7,-0.38,0.6,0.84,7.28,0.35
21480,0.7,-0.36,0.61,2.17,3.78,1.75
21500,0.71,-0.35,0.63,1.33,2.59,2.73
21520,0.71,-0.36,0.63,1.05,4.76,2.45
21540,0.71,-0.33,0.64,2.24,6.37,2.03
21560,0.71,-0.35,0.64,-0.91,11.48,0.49
21580,0.71,-0.37,0.62,-3.15,12.53,-0.84
21600,0.7,-0.36,0.64,-2.03,10.92,-0.07
21620,0.71,-0.36,0.65,-3.78,11.69,-0.77
21640,0.68,-0.36,0.67,-1.26,11.41,-0.49
21660,0.69,-0.38,0.65,0.21,12.81,0.63
21680,0.67,-0.38,0.62,1.05,9.45,2.03
21700,0.66,-0.35,0.66,3.57,4.06,2.94
21720,0.68,-0.36,0.66,3.43,2.94,4.27
21740,0.67,-0.38,0.65,2.66,1.96,4.27
21760,0.67,-0.35,0.66,3.78,-0.42,4.2
21780,0.68,-0.35,0.67,3.64,0.0,3.57
21800,0.67,-0.36,0.66,1.12,0.63,2.24
21820,0.66,-0.36,0.67,0.77,-0.84,2.45
21840,0.67,-0.35,0.7,0.7,-1.54,1.05
21860,0.69,-0.37,0.67,0.98,2.31,2.38
21880,0.68,-0.35,0.67,0.91,1.12,2.31
21900,0.67,-0.37,0.66,0.7,0.49,2.73
21920,0.66,-0.37,0.66,-0.21,0.07,3.01
21940,0.66,-0.36,0.67,-1.61,-2.17,3.29
21960,0.67,-0.34,0.68,0.7,-1.96,2.52
21980,0.68,-0.36,0.67,1.89,-0.35,1.19
22000,0.67,-0.37,0.66,2.87,-0.63,1.89
22020,0.67,-0.37,0.66,2.17,-0.49,2.03
22040,0.68,-0.38,0.67,3.01,-0.63,2.52
22060,0.68,-0.38,0.66,3.5,-0.14,2.94
22080,0.67,-0.37,0.67,3.92,-0.84,3.22
22100,0.67,-0.37,0.67,2.94,-0.98,4.2
22120,0.67,-0.35,0.67,3.36,-1.75,4.48
22140,0.67,-0.37,0.67,4.41,-2.24,4.41
22160,0.67,-0.37,0.67,2.66,-2.52,4.27
22180,0.67,-0.36,0.68,2.38,-2.59,4.13
22200,0.67,-0.36,0.68,1.47,-1.54,3.22
22220,0.67,-0.35,0.68,2.31,-0.35,2.38
22240,0.67,-0.37,0.67,2.52,0.14,1.33
22260,0.67,-0.37,0.67,1.82,0.91,1.33
22280,0.66,-0.36,0.67,0.91,1.68,0.91
22300,0.66,-0.36,0.67,0.28,-0.77,-0.21
22320,0.66,-0.37,0.67,-0.7,-1.47,0.0
22340,0.66,-0.37,0.67,-0.7,-1.89,0.0
22360,0.67,-0.37,0.67,-0.42,-1.4,0.07
22380,0.67,-0.37,0.67,0.77,-1.19,0.14
22400,0.66,-0.37,0.67,-0.21,-2.03,0.35
22420,0.66,-0.37,0.67,-0.84,-2.31,0.49
22440,0.67,-0.37,0.67,-0.35,-2.17,0.49
22460,0.67,-0.38,0.67,-0.63,-1.89,0.42
22480,0.67,-0.37,0.67,-0.14,-1.82,0.56
22500,0.67,-0.37,0.67,-0.56,-1.89,0.56
22520,0.66,-0.37,0.67,-0.56,-2.38,0.63
22540,0.67,-0.37,0.67,-1.19,-1.75,-0.42
22560,0.66,-0.37,0.67,-0.7,-1.75,0.21
22580,0.67,-0.37,0.67,-1.47,-2.38,0.35
22600,0.67,-0.36,0.67,-0.56,-2.66,0.77
22620,0.66,-0.38,0.67,-2.03,-4.13,1.96
22640,0.66,-0.39,0.68,2.1,-5.11,3.22
22660,0.65,-0.37,0.67,0.98,-6.65,5.53
22680,0.66,-0.36,0.67,1.4,-6.58,6.51
22700,0.67,-0.37,0.67,1.47,-7.63,5.32
22720,0.67,-0.37,0.67,1.96,-8.54,3.92
22740,0.67,-0.38,0.67,-0.7,-6.86,2.66
22760,0.68,-0.38,0.66,-0.7,-6.02,3.01
22780,0.67,-0.37,0.66,-0.84,-4.97,2.87
22800,0.68,-0.36,0.65,-1.54,-5.32,2.17
22820,0.68,-0.37,0.65,-3.99,-6.23,0.56
22840,0.68,-0.38,0.65,-7.14,-4.69,-0.42
22860,0.68,-0.39,0.65,-4.76,-3.01,0.63
22880,0.69,-0.39,0.65,-9.8,-1.19,-1.47
22900,0.69,-0.38,0.64,-11.34,-1.05,-3.15
22920,0.69,-0.39,0.64,-13.79,1.75,-2.52
22940,0.67,-0.38,0.64,-16.31,3.71,-2.94
22960,0.66,-0.37,0.63,-18.2,0.98,-2.24
22980,0.66,-0.37,0.63,-20.37,-0.56,-1.75
23000,0.68,-0.39,0.65,-22.68,-2.8,-4.13
23020,0.7,-0.44,0.66,-22.68,0.35,-7.56
23040,0.7,-0.45,0.63,-20.65,2.8,-7.28
23060,0.68,-0.43,0.62,-16.73,3.92,-4.9
23080,0.69,-0.42,0.63,-12.53,4.48,-4.9
23100,0.67,-0.43,0.61,-11.06,6.16,-4.9
23120,0.67,-0.42,0.59,-8.54,6.02,-3.5
23140,0.66,-0.41,0.6,-3.71,3.57,-3.29
23160,0.66,-0.42,0.61,-3.5,1.96,-2.94
23180,0.68,-0.4,0.63,-5.04,0.28,-3.01
23200,0.67,-0.41,0.62,-6.79,-1.47,-2.45
23220,0.67,-0.43,0.64,-6.72,-4.2,-0.91
23240,0.69,-0.45,0.65,-7.56,-5.25,-0.21
23260,0.7,-0.44,0.65,-9.17,-2.03,-2.87
23280,0.69,-0.42,0.63,-10.01,0.28,-3.78
23300,0.67,-0.42,0.62,-9.52,0.77,-3.57
23320,0.65,-0.42,0.59,-6.37,1.89,-2.73
23340,0.67,-0.44,0.6,-2.1,0.77,-3.29
23360,0.68,-0.44,0.61,-2.24,1.68,-3.99
23380,0.69,-0.45,0.61,-3.29,-0.07,-3.08
23400,0.69,-0.45,0.61,-1.47,0.07,-0.14
23420,0.67,-0.43,0.61,-2.31,-1.05,0.7
23440,0.68,-0.43,0.62,-7.07,-1.33,-0.7
23460,0.68,-0.42,0.62,-10.71,-1.33,0.42
23480,0.68,-0.43,0.61,-10.92,-1.89,0.35
23500,0.69,-0.44,0.61,-9.8,-1.47,1.82
23520,0.7,-0.44,0.62,-6.65,-0.07,2.73
23540,0.69,-0.44,0.63,-8.61,-0.07,3.08
23560,0.69,-0.42,0.62,-12.18,1.68,-0.14
23580,0.68,-0.43,0.62,-14.42,-0.28,-1.89
23600,0.69,-0.43,0.62,-14.98,0.14,-2.52
23620,0.7,-0.45,0.61,-15.4,1.33,-3.78
23640,0.68,-0.45,0.6,-13.37,-1.26,-0.98
23660,0.68,-0.46,0.57,-12.46,-3.15,-1.89
23680,0.68,-0.48,0.57,-10.15,-5.88,0.42
23700,0.64,-0.44,0.55,-8.75,-2.94,1.12
23720,0.65,-0.45,0.54,-11.2,-4.41,4.41
23740,0.7,-0.45,0.57,-10.99,-2.52,6.51
23760,0.77,-0.44,0.59,-17.22,12.25,-2.45
23780,0.67,-0.46,0.58,-25.41,1.47,2.24
23800,0.74,-0.51,0.57,-19.81,8.33,0.91
23820,0.72,-0.54,0.57,-16.73,10.99,5.46
23840,0.71,-0.51,0.58,-22.4,17.78,-1.47
23860,0.66,-0.49,0.56,-22.82,21.56,-7.14
23880,0.67,-0.51,0.53,-20.16,14.98,-8.19
23900,0.71,-0.52,0.58,-2.03,20.09,4.41
23920,0.71,-0.52,0.58,4.41,21.07,18.13
23940,0.69,-0.5,0.56,1.47,18.9,24.99
23960,0.67,-0.47,0.58,-1.96,16.73,24.64
23980,0.7,-0.49,0.64,-6.86,18.55,18.55
24000,0.69,-0.48,0.62,-2.94,23.38,19.18
24020,0.65,-0.48,0.63,-0.7,21.77,20.23
24040,0.61,-0.46,0.63,-8.12,21.91,19.53
24060,0.6,-0.46,0.62,-9.66,18.06,21.84
24080,0.6,-0.52,0.62,-12.53,16.59,23.1
24100,0.59,-0.58,0.62,-14.21,14.14,22.4
24120,0.57,-0.63,0.58,-15.68,10.85,32.13
24140,0.59,-0.67,0.63,-2.8,17.01,37.59
24160,0.52,-0.63,0.65,2.59,24.71,37.52
24180,0.47,-0.64,0.64,-9.87,16.17,32.06
24200,0.45,-0.62,0.64,-17.85,5.81,32.9
24220,0.45,-0.64,0.63,-19.04,7.91,33.81
24240,0.43,-0.68,0.61,-10.92,11.62,39.41
24260,0.42,-0.67,0.6,-6.09,9.45,43.33
24280,0.4,-0.58,0.64,-1.68,5.32,48.16
24300,0.35,-0.66,0.6,-1.33,5.95,49.84
24320,0.26,-0.76,0.59,-8.19,5.04,53.34
24340,0.36,-0.74,0.61,5.95,0.84,45.22
24360,0.36,-0.71,0.65,9.31,0.91,40.39
24380,0.35,-0.7,0.63,4.2,-2.94,34.86
24400,0.33,-0.72,0.62,-3.85,-7.35,31.01
24420,0.34,-0.72,0.61,-1.61,-6.23,24.22
24440,0.32,-0.73,0.62,1.05,-3.01,15.96
24460,0.3,-0.72,0.61,6.93,3.36,-3.01
24480,0.29,-0.77,0.6,6.93,4.55,-15.12
24500,0.29,-0.74,0.61,5.11,6.86,-18.55
24520,0.29,-0.75,0.61,8.19,10.85,-22.68
24540,0.27,-0.69,0.67,5.67,5.46,-34.93
24560,0.32,-0.7,0.64,-3.29,6.02,-45.71
24580,0.37,-0.78,0.6,-4.76,3.71,-55.58
24600,0.34,-0.79,0.63,6.51,-2.31,-59.99
24620,0.38,-0.63,0.6,11.06,-8.19,-54.04
24640,0.47,-0.67,0.65,2.8,-14.56,-48.58
24660,0.51,-0.63,0.67,-3.5,-9.17,-49.77
24680,0.5,-0.62,0.66,0.63,0.7,-57.89
24700,0.47,-0.62,0.64,0.35,7.07,-60.62
24720,0.48,-0.62,0.63,-0.42,8.96,-56.21
24740,0.45,-0.62,0.64,1.4,9.94,-50.68
24760,0.47,-0.59,0.66,2.17,3.64,-44.59
24780,0.54,-0.55,0.67,-9.38,-7.7,-43.4
24800,0.55,-0.56,0.65,-15.4,-8.82,-43.19
24820,0.55,-0.57,0.64,-11.69,-7.7,-41.58
24840,0.56,-0.54,0.64,-5.25,-8.47,-33.25
24860,0.6,-0.51,0.64,-13.23,-13.09,-27.23
24880,0.59,-0.51,0.62,-14.0,-11.13,-22.82
24900,0.61,-0.51,0.62,-11.41,-7.49,-21.84
24920,0.63,-0.5,0.61,-8.89,-2.17,-21.77
24940,0.62,-0.51,0.6,-5.11,1.54,-19.25
24960,0.63,-0.5,0.62,4.97,6.72,-17.29
24980,0.65,-0.49,0.61,7.14,9.87,-18.69
25000,0.65,-0.5,0.61,8.54,9.31,-15.82
25020,0.64,-0.5,0.63,12.04,10.43,-13.02
25040,0.63,-0.48,0.63,12.46,13.79,-15.26
25060,0.62,-0.5,0.61,18.62,12.6,-5.25
25080,0.66,-0.49,0.67,22.33,11.69,3.57
25100,0.6,-0.45,0.71,11.97,14.42,-6.58
25120,0.56,-0.45,0.68,-6.02,7.0,-13.02
25140,0.62,-0.52,0.66,-5.39,-4.48,-5.25
25160,0.67,-0.56,0.66,6.86,-6.3,4.13
25180,0.65,-0.51,0.65,10.85,-7.91,6.93
25200,0.6,-0.44,0.66,15.75,-5.11,9.24
25220,0.61,-0.43,0.67,18.13,-5.6,7.56
25240,0.67,-0.45,0.67,12.53,-1.26,-7.49
25260,0.64,-0.49,0.63,9.87,4.34,-8.75
25280,0.63,-0.47,0.64,19.25,3.08,-1.96
25300,0.64,-0.47,0.68,15.47,6.02,-8.19
25320,0.58,-0.45,0.68,17.57,8.82,-10.43
25340,0.56,-0.44,0.67,14.0,6.72,-6.02
25360,0.55,-0.46,0.72,19.74,17.43,14.56
25380,0.54,-0.47,0.69,26.11,25.27,46.69
25400,0.63,-0.4,0.74,10.01,6.79,24.71
25420,0.64,-0.36,0.69,-1.96,-0.35,-25.34
25440,0.57,-0.46,0.72,11.76,15.05,-25.76
25460,0.52,-0.49,0.73,25.2,22.4,-2.38
25480,0.48,-0.36,0.66,7.77,16.59,-3.01
25500,0.25,-0.18,0.61,-37.87,-9.31,-31.08
25520,0.3,-0.22,0.59,-45.15,-34.44,-7.98
25540,0.55,0.02,0.61,-112.28,-133.84,-101.85
25560,0.55,-0.34,0.77,-116.34,-149.31,-139.09
25580,0.72,-0.44,0.71,-81.83,-113.19,-123.34
25600,0.7,-0.51,0.63,-104.23,-95.69,-89.81
25620,0.71,-0.41,0.44,-83.58,-86.8,-44.52
25640,0.63,-0.45,0.52,-35.21,-89.04,-23.38
25660,0.86,-0.64,0.57,-28.63,-41.44,-49.63
25680,0.99,-0.59,0.28,-34.93,-13.65,-50.26
25700,0.87,-0.38,0.42,-3.78,-14.07,-28.07
25720,0.89,-0.39,0.41,-20.51,-21.49,-23.03
25740,0.86,-0.42,0.34,-23.52,-38.01,-8.68
25760,0.84,-0.42,0.31,-22.82,-44.17,1.89
25780,0.85,-0.42,0.27,-23.31,-44.94,-0.21
25800,0.82,-0.42,0.25,-15.89,-45.92,-4.97
25820,0.82,-0.42,0.24,-14.21,-51.45,-9.45
25840,0.85,-0.4,0.24,-3.57,-60.41,-8.82
25860,0.86,-0.36,0.25,6.72,-69.37,-6.16
25880,0.87,-0.32,0.16,2.38,-82.67,-7.56
25900,0.91,-0.32,0.14,-4.48,-99.61,-13.51
25920,0.93,-0.31,0.06,-28.49,-108.85,-25.48
25940,1.01,-0.4,0.07,-29.05,-117.32,-25.34
25960,1.03,-0.38,0.01,-29.82,-113.12,-26.25
25980,1.1,-0.37,-0.01,-17.57,-91.49,-34.72
26000,1.06,-0.36,-0.04,-16.17,-75.74,-37.17
26020,1.08,-0.31,-0.08,-24.29,-62.51,-36.61
26040,1.03,-0.25,-0.09,-29.82,-47.6,-33.67
26060,1.02,-0.26,-0.11,-41.37,-45.29,-29.96
26080,1.08,-0.24,-0.13,-53.48,-42.35,-22.33
26100,1.0,-0.21,-0.15,-60.9,-23.31,-26.74
26120,0.96,-0.2,-0.19,-60.48,-20.58,-26.67
26140,0.97,-0.21,-0.21,-55.86,-24.99,-28.35
26160,1.01,-0.23,-0.26,-26.53,-11.06,-6.02
26180,0.99,-0.23,-0.28,-22.33,-9.52,-9.94
26200,0.97,-0.2,-0.21,-42.56,-8.33,-9.59
26220,0.97,-0.19,-0.24,-50.96,-6.65,-16.8
26240,0.96,-0.21,-0.26,-39.62,-10.57,-9.59
26260,0.95,-0.16,-0.24,-49.49,-5.39,-18.9
26280,0.95,-0.16,-0.25,-35.35,-6.58,-9.17
26300,0.95,-0.13,-0.23,-44.24,-5.81,-13.37
26320,0.93,-0.16,-0.26,-30.45,-5.95,-6.72
26340,0.99,-0.1,-0.37,-66.01,5.81,-28.7
26360,0.93,-0.18,-0.25,-15.47,3.15,-1.75
26380,0.98,-0.14,-0.24,-16.87,6.79,-4.34
26400,0.97,-0.12,-0.25,-10.92,11.48,-1.05
26420,0.97,-0.25,-0.28,-5.04,12.18,-3.22
26440,0.97,-0.11,-0.27,-2.8,8.12,-2.73
26460,1.01,-0.09,-0.25,-0.28,20.23,-3.78
26480,0.99,-0.05,-0.22,-1.96,32.13,-1.61
26500,0.95,-0.05,-0.21,-11.06,30.31,4.69
26520,0.97,-0.08,-0.19,-11.27,18.27,13.44
26540,0.96,-0.08,-0.16,-22.96,16.87,11.97
26560,0.98,-0.1,-0.16,-21.84,17.08,24.78
26580,0.99,-0.12,-0.19,-16.17,15.89,27.44
26600,1.0,-0.18,-0.18,-18.55,15.4,21.7
26620,1.0,-0.18,-0.19,0.49,25.13,33.74
26640,0.98,-0.17,-0.16,7.0,25.13,40.04
26660,1.0,-0.17,-0.13,12.18,28.07,41.37
26680,0.96,-0.18,-0.13,12.25,31.43,43.61
26700,0.92,-0.18,-0.1,15.26,29.54,46.34
26720,0.94,-0.22,-0.08,12.18,28.49,44.38
26740,0.93,-0.25,-0.09,16.59,23.87,40.32
26760,0.96,-0.31,-0.04,16.31,11.2,42.28
26780,0.93,-0.32,-0.04,22.96,11.62,43.19
26800,0.93,-0.34,-0.04,30.1,10.57,41.65
26820,0.94,-0.36,-0.03,30.38,8.61,37.31
26840,0.91,-0.35,-0.02,26.39,6.93,30.73
26860,0.91,-0.38,-0.02,24.15,3.92,26.46
26880,0.92,-0.4,-0.0,24.22,0.0,25.06
26900,0.94,-0.39,0.01,21.7,0.7,21.91
26920,0.93,-0.41,0.01,17.36,-0.14,17.92
26940,0.91,-0.41,0.0,17.78,-2.73,18.62
26960,0.91,-0.39,0.02,16.87,-3.92,17.36
26980,0.92,-0.42,0.01,18.55,-11.62,18.13
27000,0.91,-0.41,-0.0,29.05,-14.7,21.28
27020,0.92,-0.43,-0.02,34.72,-20.86,26.11
27040,0.92,-0.45,-0.02,40.18,-28.07,31.5
27060,0.85,-0.4,-0.02,56.56,-21.77,12.25
27080,0.9,-0.45,-0.02,53.27,-27.79,22.68
27100,0.85,-0.44,0.01,45.5,-20.79,18.27
27120,0.84,-0.44,0.01,40.6,-19.95,14.28
27140,0.84,-0.49,-0.02,29.89,-21.35,12.53
27160,0.83,-0.46,-0.01,32.34,-24.85,14.42
27180,0.85,-0.49,-0.01,22.54,-25.06,5.25
27200,0.87,-0.5,-0.03,24.01,-26.46,-1.61
27220,0.87,-0.47,-0.01,22.82,-29.54,-2.87
27240,0.85,-0.47,-0.03,5.67,-26.53,-9.87
27260,0.86,-0.49,-0.04,-4.69,-28.49,-14.07
27280,0.89,-0.48,-0.06,-3.57,-36.54,-11.55
27300,0.91,-0.46,-0.07,0.7,-42.49,-8.12
27320,0.9,-0.44,-0.07,-0.84,-38.78,-7.63
27340,0.88,-0.45,-0.09,-6.37,-34.44,-16.73
27360,0.9,-0.46,-0.13,-6.65,-32.2,-16.8
27380,0.9,-0.44,-0.13,4.06,-27.23,-16.24
27400,0.89,-0.43,-0.13,4.2,-26.95,-15.26
27420,0.88,-0.42,-0.14,-9.24,-24.99,-19.6
27440,0.87,-0.43,-0.16,-21.28,-24.99,-21.7
27460,0.89,-0.44,-0.17,-18.9,-25.13,-20.37
27480,0.88,-0.38,-0.15,-20.79,-22.19,-26.6
27500,0.88,-0.38,-0.17,-24.5,-19.18,-37.59
27520,0.84,-0.35,-0.17,-14.56,-26.6,-40.39
27540,0.91,-0.44,-0.24,41.37,-31.01,-0.21
27560,0.87,-0.43,-0.24,28.56,-39.06,-0.98
27580,0.87,-0.44,-0.23,36.68,-45.15,-5.88
27600,0.85,-0.43,-0.36,28.35,-63.14,-8.05
27620,0.84,-0.43,-0.24,30.8,-85.4,-7.42
27640,0.89,-0.41,-0.29,25.13,-83.37,-2.24
27660,0.87,-0.39,-0.31,29.33,-81.2,-7.07
27680,0.88,-0.37,-0.35,35.56,-88.48,-6.58
27700,0.74,-0.39,-0.34,26.11,-91.91,25.06
27720,0.94,-0.43,-0.46,12.32,-65.66,2.31
27740,0.81,-0.4,-0.39,-7.35,0.07,4.2
27760,0.84,-0.35,-0.43,-11.69,-5.18,-1.61
27780,0.81,-0.42,-0.43,-13.16,1.89,-2.1
27800,0.81,-0.44,-0.36,0.14,-3.22,0.21
27820,0.87,-0.33,-0.39,-10.36,-4.34,3.57
27840,0.8,-0.42,-0.41,-0.14,-6.72,4.76
27860,0.82,-0.41,-0.43,-4.55,-7.0,1.47
27880,0.82,-0.37,-0.44,-9.59,-8.68,13.09
27900,0.8,-0.42,-0.44,-7.28,-11.2,9.73
27920,0.79,-0.4,-0.47,-7.7,-9.8,10.22
27940,0.79,-0.41,-0.45,-3.5,-8.75,12.81
27960,0.79,-0.41,-0.44,-0.07,-4.06,8.19
27980,0.77,-0.42,-0.45,2.31,-1.89,0.0
28000,0.79,-0.42,-0.44,3.78,2.73,-5.25
28020,0.8,-0.43,-0.43,3.22,2.1,-5.32
28040,0.8,-0.42,-0.43,1.75,0.14,0.35
28060,0.79,-0.42,-0.43,3.15,-0.42,3.36
28080,0.79,-0.43,-0.42,3.71,0.14,3.36
28100,0.8,-0.43,-0.42,1.26,-1.61,5.6
28120,0.8,-0.43,-0.42,0.84,-4.9,6.86
28140,0.79,-0.43,-0.43,-0.49,-5.32,5.25
28160,0.79,-0.44,-0.43,-0.28,-4.62,1.96
28180,0.79,-0.44,-0.43,0.84,-3.01,-0.07
28200,0.8,-0.42,-0.43,3.78,-1.19,-0.56
28220,0.79,-0.44,-0.43,4.13,0.7,-0.84
28240,0.8,-0.44,-0.42,3.92,-0.77,1.47
28260,0.78,-0.45,-0.41,11.13,-2.1,3.5
28280,0.82,-0.46,-0.42,14.84,-3.36,3.78
28300,0.8,-0.44,-0.43,16.45,-6.44,-10.15
28320,0.8,-0.44,-0.41,3.01,-2.94,-2.03
28340,0.71,-0.58,-0.46,24.85,-20.37,3.15
28360,0.83,-0.4,-0.41,9.59,-2.17,-4.27
28380,0.75,-0.6,-0.43,22.05,-13.79,0.63
28400,0.77,-0.53,-0.41,21.28,-11.62,8.12
28420,0.9,-0.19,-0.4,-7.21,-3.85,-7.56
28440,0.79,-0.48,-0.44,3.71,-5.25,-1.47
28460,0.79,-0.43,-0.44,1.26,-6.3,-0.98
28480,0.82,-0.43,-0.46,-5.81,-7.77,-4.48
28500,0.79,-0.46,-0.43,2.8,-3.43,-1.33
28520,0.77,-0.45,-0.44,-0.98,-4.69,-1.75
28540,0.79,-0.45,-0.44,-0.84,-2.38,-1.89
28560,0.78,-0.45,-0.44,1.33,-2.66,1.75
28580,0.77,-0.45,-0.44,1.19,0.07,0.63
28600,0.78,-0.45,-0.43,3.36,1.75,0.56
28620,0.78,-0.45,-0.43,2.45,1.75,1.68
28640,0.78,-0.46,-0.43,1.75,0.63,1.47
28660,0.78,-0.45,-0.42,0.49,0.0,0.35
28680,0.78,-0.46,-0.43,1.96,-0.07,-1.12
28700,0.78,-0.45,-0.43,1.05,-0.07,-2.52
28720,0.78,-0.45,-0.43,0.0,-1.33,-1.05
28740,0.78,-0.46,-0.42,-0.07,-1.96,0.84
28760,0.78,-0.45,-0.43,0.14,-1.89,0.49
28780,0.78,-0.45,-0.43,17.71,-2.03,0.77
28800,0.78,-0.45,-0.43,0.42,-1.54,1.26
28820,0.78,-0.45,-0.43,0.49,-0.77,0.98
28840,0.78,-0.45,-0.43,1.19,-0.84,1.75
28860,0.78,-0.45,-0.42,0.56,-1.12,1.47
28880,0.78,-0.46,-0.42,1.19,-0.49,-0.91
28900,0.78,-0.45,-0.43,0.77,-0.28,-1.61
28920,0.78,-0.46,-0.43,1.05,-0.49,-2.03
28940,0.78,-0.45,-0.42,1.4,-0.28,-1.61
28960,0.77,-0.5,-0.43,7.0,-3.57,1.33
28980,0.77,-0.51,-0.43,5.11,-2.17,2.8
29000,0.8,-0.42,-0.42,5.95,-6.65,-3.29
29020,0.96,-0.25,-0.39,-4.62,-4.48,-3.43
29040,0.78,-0.45,-0.42,-4.34,-2.73,0.63
29060,0.78,-0.46,-0.43,-3.15,-4.41,-1.05
29080,0.77,-0.45,-0.43,-2.31,-4.41,-1.19
29100,0.77,-0.45,-0.43,-1.96,-4.13,-1.4
29120,0.78,-0.45,-0.44,-1.82,-3.92,-0.07
29140,0.77,-0.45,-0.44,-0.7,-2.52,-0.49
29160,0.77,-0.45,-0.44,1.61,-0.42,-1.33
29180,0.77,-0.45,-0.44,1.82,0.84,-1.4
29200,0.77,-0.45,-0.43,2.45,1.05,-0.28
29220,0.77,-0.45,-0.43,1.89,0.77,0.91
29240,0.77,-0.46,-0.43,0.91,-17.92,0.84
29260,0.77,-0.45,-0.43,0.49,-0.77,0.91
29280,0.78,-0.45,-0.43,0.07,-2.31,0.7
29300,0.78,-0.46,-0.43,0.07,-1.68,0.7
29320,0.78,-0.46,-0.43,-17.36,-1.68,1.75
29340,0.77,-0.45,-0.44,-0.07,-2.24,2.38
29360,0.77,-0.46,-0.43,0.35,-1.82,2.17
29380,0.77,-0.46,-0.43,0.21,-1.89,1.96
29400,0.77,-0.46,-0.43,0.56,-1.61,0.63
29420,0.77,-0.46,-0.43,0.35,-0.98,-0.56
29440,0.78,-0.46,-0.43,0.21,-1.12,-0.42
29460,0.77,-0.46,-0.43,-0.07,-0.98,-0.7
29480,0.77,-0.46,-0.43,0.21,-0.7,-1.05
29500,0.78,-0.46,-0.43,-0.07,-1.05,-0.98
29520,0.77,-0.46,-0.43,0.77,-0.35,-1.05
29540,0.78,-0.45,-0.43,0.35,-0.98,0.07
29560,0.78,-0.46,-0.43,-0.07,-1.61,1.33
29580,0.78,-0.46,-0.43,-0.35,-2.73,1.54
29600,0.77,-0.45,-0.43,-1.33,-2.94,1.54
29620,0.77,-0.45,-0.44,-1.05,-2.31,1.4
29640,0.77,-0.45,-0.43,0.0,-2.17,0.42
29660,0.77,-0.45,-0.44,0.98,-0.49,-0.7
29680,0.77,-0.46,-0.44,0.7,0.21,0.07
29700,0.78,-0.45,-0.44,0.91,-0.56,0.84
29720,0.77,-0.45,-0.43,0.35,-0.91,1.26
29740,0.77,-0.46,-0.43,0.21,-0.91,1.19
29760,0.77,-0.45,-0.43,0.35,-1.19,0.98
29780,0.77,-0.46,-0.43,0.28,-1.4,0.42
29800,0.77,-0.46,-0.43,0.14,-1.26,0.49
29820,0.78,-0.46,-0.43,0.07,-1.4,0.91
29840,0.77,-0.46,-0.44,0.91,-1.12,0.63
29860,0.77,-0.45,-0.43,0.49,-0.91,1.33
29880,0.77,-0.46,-0.43,0.98,-0.21,1.82
29900,0.77,-0.46,-0.43,1.47,-0.84,1.33
29920,0.77,-0.46,-0.43,0.91,-0.91,0.0
29940,0.77,-0.46,-0.43,0.63,-0.28,-0.7
29960,0.77,-0.46,-0.43,-0.42,-0.28,-1.26
29980,0.77,-0.46,-0.43,0.0,-0.7,-0.84
30000,0.77,-0.46,-0.43,0.07,-0.84,-0.14
30020,0.77,-0.46,-0.43,0.21,-0.7,0.0
30040,0.77,-0.46,-0.43,0.56,-0.49,-0.28
30060,0.77,-0.46,-0.43,-0.7,-0.28,-0.77
30080,0.78,-0.46,-0.43,-1.96,-0.98,-0.42
30100,0.77,-0.46,-0.44,-1.75,-0.91,-0.14
30120,0.78,-0.45,-0.43,-0.98,-2.38,0.98
30140,0.75,-0.44,-0.46,-3.15,-4.62,-0.63
30160,0.78,-0.45,-0.44,-1.89,-2.59,0.14
30180,0.77,-0.45,-0.44,0.28,-1.19,0.14
30200,0.77,-0.45,-0.44,0.21,-1.12,0.63
30220,0.77,-0.45,-0.44,0.77,0.14,0.91
30240,0.77,-0.45,-0.43,2.03,0.63,0.14
30260,0.77,-0.45,-0.43,1.54,0.77,-0.07
30280,0.78,-0.45,-0.43,0.56,0.14,-0.28
30300,0.77,-0.45,-0.43,0.42,-0.28,-0.14
30320,0.78,-0.45,-0.43,0.07,-1.47,0.35
30340,0.77,-0.45,-0.43,0.28,-1.54,0.21
30360,0.78,-0.45,-0.43,-0.42,-1.68,0.28
30380,0.78,-0.45,-0.43,-0.21,-1.61,0.07
30400,0.78,-0.45,-0.43,-0.07,-1.47,0.35
30420,0.77,-0.45,-0.43,0.07,-1.47,0.77
30440,0.77,-0.45,-0.43,1.33,-1.4,0.56
30460,0.77,-0.45,-0.43,0.56,-0.56,0.07
30480,0.78,-0.45,-0.43,-0.42,-0.14,-0.21
30500,0.78,-0.45,-0.43,0.91,-0.98,0.56
30520,0.77,-0.45,-0.43,1.19,-1.47,1.4
30540,0.77,-0.46,-0.43,0.56,-1.19,0.84
30560,0.78,-0.46,-0.43,0.35,-1.26,0.84
30580,0.77,-0.45,-0.43,0.35,-1.33,-0.14
30600,0.77,-0.46,-0.43,0.49,-0.77,-1.05
30620,0.78,-0.45,-0.43,0.0,-0.84,-0.91
30640,0.78,-0.46,-0.43,-0.07,-0.56,-2.17
30660,0.78,-0.45,-0.43,-0.14,-0.21,-3.08
30680,0.78,-0.45,-0.43,-0.63,-0.7,-1.68
30700,0.78,-0.45,-0.43,-0.77,-1.68,-0.07
30720,0.78,-0.45,-0.43,-0.21,-2.52,1.19
30740,0.78,-0.45,-0.43,-0.35,-2.66,0.77
30760,0.78,-0.45,-0.43,-1.05,-2.87,0.56
30780,0.78,-0.45,-0.44,0.91,-3.85,0.0
30800,0.77,-0.45,-0.44,-0.49,-1.75,-0.49
30820,0.77,-0.45,-0.43,0.28,0.07,0.35
30840,0.77,-0.45,-0.44,0.63,0.56,0.91
30860,0.78,-0.45,-0.43,1.75,1.19,-0.49
30880,0.78,-0.45,-0.43,1.75,1.68,-0.7
30900,0.78,-0.45,-0.43,1.12,1.05,-1.05
30920,0.78,-0.45,-0.43,0.42,-0.35,-1.19
30940,0.78,-0.45,-0.43,0.77,-0.84,-1.4
30960,0.78,-0.45,-0.43,-0.21,-0.98,-0.63
30980,0.78,-0.45,-0.43,-0.07,-1.4,-0.21
31000,0.78,-0.45,-0.43,-0.07,-0.7,0.14
31020,0.78,-0.45,-0.43,0.28,-1.05,0.91
31040,0.78,-0.45,-0.43,0.49,-1.61,1.12
31060,0.78,-0.45,-0.43,0.35,-0.77,0.42
31080,0.78,-0.45,-0.43,0.91,-0.07,0.21
31100,0.78,-0.45,-0.43,0.7,0.0,-0.28
31120,0.78,-0.45,-0.43,0.42,-0.14,-0.49
31140,0.78,-0.45,-0.43,0.28,-1.33,0.63
31160,0.78,-0.45,-0.43,1.19,-0.84,0.0
31180,0.78,-0.45,-0.43,0.84,-0.7,0.28
31200,0.78,-0.45,-0.43,0.63,-1.19,-0.07
31220,0.78,-0.45,-0.43,0.63,-0.56,-1.33
31240,0.78,-0.45,-0.43,0.77,-0.77,-1.89
31260,0.78,-0.45,-0.43,-0.84,-0.77,-1.19
31280,0.78,-0.44,-0.43,-0.28,-0.35,-1.33
31300,0.78,-0.45,-0.43,-1.19,-0.56,-2.52
31320,0.78,-0.45,-0.43,-1.82,-0.49,-1.47
31340,0.79,-0.45,-0.42,-5.11,-5.95,0.63
31360,0.78,-0.44,-0.43,-2.17,-3.5,1.75
31380,0.78,-0.44,-0.43,-2.24,-2.45,1.26
31400,0.78,-0.44,-0.43,-1.68,-3.15,0.63
31420,0.78,-0.44,-0.44,-0.98,-2.31,0.0
31440,0.78,-0.44,-0.44,0.0,-0.56,-0.77
31460,0.78,-0.44,-0.43,0.28,0.21,-0.77
31480,0.78,-0.44,-0.43,0.56,0.77,-1.4
31500,0.78,-0.44,-0.44,1.33,1.05,-0.91
31520,0.78,-0.44,-0.43,1.68,1.05,-0.7
31540,0.78,-0.44,-0.43,0.84,0.0,-0.07
31560,0.78,-0.44,-0.43,0.42,-0.7,0.14
31580,0.79,-0.44,-0.43,0.35,-1.47,0.63
31600,0.78,-0.44,-0.43,0.07,-1.75,0.98
31620,0.78,-0.44,-0.43,0.14,-1.68,1.47
31640,0.78,-0.44,-0.43,1.12,-1.19,1.47
31660,0.78,-0.44,-0.43,0.7,-0.7,0.42
31680,0.78,-0.44,-0.43,0.63,-1.54,0.07
31700,0.78,-0.44,-0.43,0.56,-0.42,-0.42
31720,0.78,-0.44,-0.43,0.28,-0.14,-0.14
31740,0.78,-0.44,-0.43,0.42,-0.91,0.35
31760,0.78,-0.44,-0.43,0.35,-1.26,0.91
31780,0.78,-0.44,-0.43,1.05,-0.63,0.49
31800,0.78,-0.44,-0.43,0.63,-0.77,0.07
31820,0.78,-0.44,-0.43,0.91,-0.77,-1.05
31840,0.78,-0.44,-0.43,0.77,-0.49,-1.96
31860,0.78,-0.44,-0.43,0.77,-0.49,-1.96
31880,0.79,-0.44,-0.43,-0.56,0.07,-2.59
31900,0.79,-0.44,-0.43,-0.28,-0.21,-2.24
31920,0.79,-0.44,-0.43,0.0,-0.28,-2.31
31940,0.79,-0.43,-0.43,-0.77,-2.03,-0.49
31960,0.79,-0.44,-0.43,-1.12,-1.82,0.98
31980,0.79,-0.44,-0.43,-0.63,-2.03,1.05
32000,0.79,-0.43,-0.43,-0.84,-2.45,0.56
32020,0.79,-0.44,-0.43,-1.54,-2.38,0.84
32040,0.79,-0.43,-0.43,-1.47,-2.8,1.47
32060,0.78,-0.43,-0.43,-0.49,-2.17,0.98
32080,0.79,-0.44,-0.43,0.14,-0.91,0.63
32100,0.78,-0.44,-0.43,0.28,-0.21,0.28
32120,0.78,-0.43,-0.44,1.26,0.35,0.7
32140,0.78,-0.44,-0.43,2.1,0.7,1.05
32160,0.79,-0.44,-0.43,1.61,0.56,-0.07
32180,0.78,-0.44,-0.43,1.05,-0.14,-0.42
32200,0.79,-0.44,-0.43,0.98,-0.28,-0.49
32220,0.79,-0.44,-0.43,0.42,-1.47,0.42
32240,0.79,-0.44,-0.43,1.33,-1.82,1.05
32260,0.79,-0.44,-0.43,0.0,-1.47,0.98
32280,0.78,-0.44,-0.43,-0.21,-0.56,1.19
32300,0.79,-0.44,-0.43,0.14,-1.33,1.05
32320,0.78,-0.44,-0.43,0.42,-0.77,0.7
32340,0.79,-0.44,-0.43,0.21,-1.12,0.07
32360,0.79,-0.44,-0.43,0.49,-0.98,0.77
32380,0.79,-0.44,-0.43,0.63,-0.63,0.7
32400,0.79,-0.44,-0.43,0.56,-1.19,1.61
32420,0.79,-0.44,-0.43,0.42,-1.33,1.12
32440,0.78,-0.44,-0.43,0.49,-0.91,-0.35
32460,0.79,-0.44,-0.43,0.28,-0.77,-1.47
32480,0.79,-0.44,-0.43,-0.21,-0.28,-1.89
32500,0.79,-0.44,-0.43,-0.56,-0.21,-1.4
32520,0.79,-0.43,-0.43,-1.05,-0.35,-1.33
32540,0.79,-0.44,-0.42,0.07,-0.7,-1.47
32560,0.79,-0.43,-0.43,-0.07,-0.56,-0.84
32580,0.79,-0.44,-0.43,-0.91,-1.12,0.28
32600,0.79,-0.44,-0.43,-1.75,-1.82,0.35
32620,0.79,-0.43,-0.43,-2.59,-2.24,0.84
32640,0.79,-0.44,-0.43,-2.03,-3.15,1.75
32660,0.79,-0.43,-0.43,-1.47,-3.29,1.96
32680,0.79,-0.43,-0.43,-1.47,-2.8,1.82
32700,0.78,-0.43,-0.43,-1.47,-2.52,0.91
32720,0.79,-0.43,-0.43,-0.14,-1.61,-0.56
32740,0.78,-0.43,-0.43,0.56,-0.28,-0.42
32760,0.79,-0.42,-0.44,1.4,0.28,0.49
32780,0.79,-0.43,-0.43,3.43,0.28,2.66
32800,0.79,-0.44,-0.43,2.38,0.0,1.82
32820,0.79,-0.44,-0.43,1.75,-0.07,0.21
32840,0.79,-0.44,-0.43,1.05,-0.77,-0.91
32860,0.79,-0.44,-0.43,0.56,-0.35,-0.7
32880,0.79,-0.44,-0.43,0.98,-0.84,0.35
32900,0.79,-0.44,-0.43,0.28,-1.4,0.28
32920,0.79,-0.43,-0.43,0.35,-1.05,0.28
32940,0.79,-0.44,-0.43,0.35,-1.12,0.21
32960,0.78,-0.43,-0.43,0.42,-0.91,-0.28
32980,0.79,-0.44,-0.43,0.0,-0.84,-0.42
33000,0.79,-0.43,-0.43,0.63,-0.56,0.84
33020,0.79,-0.43,-0.43,1.12,-1.05,2.24
33040,0.78,-0.44,-0.42,1.19,-1.12,2.59
33060,0.78,-0.44,-0.43,0.56,-1.05,0.63
33080,0.78,-0.44,-0.43,0.77,0.0,-2.17
33100,0.79,-0.43,-0.43,0.84,0.35,-2.73
33120,0.79,-0.44,-0.43,0.21,0.21,-2.8
33140,0.79,-0.44,-0.42,0.21,-0.28,-2.87
33160,0.79,-0.43,-0.43,-0.7,-0.42,-1.96
33180,0.79,-0.43,-0.43,-0.56,-0.21,-1.61
33200,0.79,-0.43,-0.42,-0.91,-1.26,-2.59
33220,0.79,-0.43,-0.42,-0.28,-1.26,-0.21
33240,0.79,-0.43,-0.43,-1.82,-2.1,0.56
33260,0.79,-0.43,-0.43,-2.8,-2.45,1.96
33280,0.79,-0.43,-0.43,-0.98,-2.66,2.17
33300,0.79,-0.43,-0.43,-0.63,-2.38,2.8
33320,0.79,-0.43,-0.43,-0.7,-2.45,2.73
33340,0.79,-0.43,-0.43,-0.56,-1.96,2.1
33360,0.79,-0.43,-0.43,0.42,-0.91,0.07
33380,0.79,-0.43,-0.44,1.4,-0.28,-0.07
33400,0.79,-0.43,-0.43,2.45,0.35,0.28
33420,0.79,-0.43,-0.43,2.38,0.84,1.33
33440,0.79,-0.43,-0.43,2.03,-0.49,0.28
33460,0.79,-0.43,-0.43,0.91,-0.77,-0.28
33480,0.79,-0.44,-0.43,0.35,-0.7,-1.26
33500,0.79,-0.43,-0.43,0.21,-1.33,-0.63
33520,0.79,-0.43,-0.43,0.14,-1.12,0.42
33540,0.79,-0.43,-0.43,0.49,-1.19,0.42
33560,0.79,-0.43,-0.43,0.35,-1.19,1.05
33580,0.79,-0.43,-0.43,0.84,-0.91,1.33
33600,0.79,-0.43,-0.43,0.21,-1.4,1.26
33620,0.79,-0.43,-0.43,0.28,-1.19,0.42
33640,0.79,-0.43,-0.43,0.56,-0.42,0.0
33660,0.79,-0.43,-0.43,0.7,-0.84,1.19
33680,0.79,-0.44,-0.43,0.77,-1.4,1.68
33700,0.79,-0.44,-0.43,0.35,-1.12,-0.7
33720,0.79,-0.43,-0.42,0.42,-0.77,-1.68
33740,0.79,-0.43,-0.43,-0.14,-1.26,-2.24
33760,0.79,-0.43,-0.43,-0.28,-0.35,-2.03
33780,0.79,-0.43,-0.43,1.61,0.28,-1.47
33800,0.79,-0.43,-0.42,0.21,-0.56,-0.77
33820,0.79,-0.43,-0.43,-0.35,-0.77,-1.26
33840,0.78,-0.43,-0.43,-0.98,-0.56,-1.96
33860,0.79,-0.43,-0.42,-1.82,-1.05,-1.05
33880,0.8,-0.43,-0.42,-2.87,-2.17,0.07
33900,0.79,-0.43,-0.43,-3.99,-3.57,1.05
33920,0.79,-0.42,-0.44,-3.15,-3.78,1.61
33940,0.79,-0.43,-0.43,-1.19,-3.29,2.45
33960,0.79,-0.43,-0.43,-1.12,-3.08,3.15
33980,0.79,-0.43,-0.43,-0.28,-2.03,1.89
34000,0.79,-0.43,-0.43,0.07,-0.7,-0.84
34020,0.79,-0.42,-0.44,1.19,-0.14,-1.19
34040,0.79,-0.42,-0.43,4.34,0.21,0.91
34060,0.79,-0.43,-0.43,3.71,0.21,3.36
34080,0.79,-0.43,-0.43,2.52,0.14,2.24
34100,0.79,-0.43,-0.43,2.1,-1.05,0.7
34120,0.79,-0.43,-0.43,0.0,0.21,0.14
34140,0.79,-0.43,-0.43,0.28,-1.12,0.14
34160,0.79,-0.43,-0.43,0.35,-0.77,-0.35
34180,0.79,-0.43,-0.43,0.21,-1.05,-0.7
34200,0.79,-0.43,-0.43,0.35,-0.91,0.14
34220,0.79,-0.43,-0.43,0.7,-1.05,1.4
34240,0.79,-0.43,-0.43,0.35,-1.26,1.26
34260,0.79,-0.43,-0.43,0.49,-1.05,0.63
34280,0.79,-0.43,-0.43,0.91,0.0,0.35
34300,0.79,-0.43,-0.43,0.98,-0.14,0.07
34320,0.79,-0.43,-0.43,0.56,-0.49,-0.42
34340,0.79,-0.43,-0.43,1.4,-0.14,-1.54
34360,0.79,-0.43,-0.43,0.77,-0.28,-2.03
34380,0.79,-0.43,-0.42,-0.21,-0.84,-2.17
34400,0.79,-0.43,-0.43,-0.91,-0.35,-1.82
34420,0.79,-0.43,-0.43,-1.12,-0.49,-3.08
34440,0.8,-0.43,-0.43,-0.21,-0.28,-2.24
34460,0.8,-0.43,-0.42,0.0,-0.63,-1.47
34480,0.8,-0.43,-0.42,-0.91,-1.26,-0.7
34500,0.8,-0.42,-0.43,-1.54,-2.52,0.56
34520,0.79,-0.42,-0.43,-0.49,-2.73,1.19
34540,0.79,-0.43,-0.43,-0.7,-2.66,1.12
34560,0.8,-0.43,-0.43,-0.84,-2.45,1.54
34580,0.79,-0.43,-0.43,-0.35,-2.31,1.75
34600,0.79,-0.43,-0.43,-0.07,-1.82,-0.21
34620,0.79,-0.43,-0.43,0.28,-1.26,-1.05
34640,0.79,-0.42,-0.43,0.63,-1.75,0.21
34660,0.79,-0.42,-0.43,2.8,-0.63,1.61
34680,0.79,-0.43,-0.43,3.64,-0.35,3.01
34700,0.79,-0.43,-0.43,3.01,-0.7,2.24
34720,0.79,-0.43,-0.42,1.61,-0.98,1.89
34740,0.79,-0.43,-0.43,0.98,-0.91,0.98
34760,0.79,-0.43,-0.42,0.28,-0.98,-0.21
34780,0.79,-0.43,-0.43,0.07,-1.4,0.63
34800,0.79,-0.43,-0.43,0.49,-0.98,0.98
34820,0.79,-0.43,-0.43,0.21,-0.98,-0.21
34840,0.79,-0.44,-0.43,-0.7,-1.05,-0.14
34860,0.79,-0.43,-0.43,0.63,-0.35,0.49
34880,0.79,-0.43,-0.42,0.91,-0.28,0.56
34900,0.79,-0.43,-0.43,0.56,-0.91,1.12
34920,0.79,-0.43,-0.42,0.42,-0.84,0.14
34940,0.79,-0.43,-0.43,1.54,-0.98,-1.4
34960,0.79,-0.43,-0.43,0.42,-0.28,-2.17
34980,0.79,-0.43,-0.43,-0.42,0.0,-1.26
35000,0.79,-0.43,-0.43,0.0,-0.77,-0.98
35020,0.79,-0.43,-0.42,-0.84,-0.7,-1.19
35040,0.79,-0.43,-0.42,-0.91,-1.12,-0.98
35060,0.8,-0.42,-0.42,-0.42,-0.98,-0.42
35080,0.8,-0.43,-0.42,-0.07,-0.98,-0.28
35100,0.79,-0.43,-0.42,-1.47,-1.19,-1.19
35120,0.8,-0.43,-0.42,-2.17,-1.33,-1.05
35140,0.79,-0.43,-0.43,-1.4,-1.82,-0.07
35160,0.79,-0.43,-0.43,-1.26,-2.24,1.05
35180,0.8,-0.42,-0.43,-0.91,-2.31,1.33
35200,0.79,-0.42,-0.43,-0.49,-1.89,1.4
35220,0.79,-0.43,-0.43,-0.56,-2.17,2.17
35240,0.79,-0.43,-0.43,0.21,-2.17,1.19
35260,0.79,-0.43,-0.43,-0.14,-1.82,-0.98
35280,0.79,-0.42,-0.43,-0.07,-1.12,-0.7
35300,0.79,-0.42,-0.43,0.98,-0.28,0.77
35320,0.8,-0.42,-0.43,3.29,-0.21,3.71
35340,0.79,-0.43,-0.43,2.45,-1.26,3.57
35360,0.79,-0.43,-0.43,1.89,-1.75,2.59
35380,0.79,-0.43,-0.42,0.84,-1.19,1.26
35400,0.79,-0.43,-0.43,0.21,-0.77,-0.07
35420,0.79,-0.43,-0.43,0.14,-0.91,0.0
35440,0.79,-0.43,-0.43,0.07,-1.47,0.63
35460,0.79,-0.43,-0.43,0.14,-1.33,0.35
35480,0.79,-0.43,-0.43,0.56,-0.98,0.7
35500,0.79,-0.43,-0.43,0.63,-0.98,1.26
35520,0.79,-0.43,-0.43,0.42,-1.4,1.4
35540,0.79,-0.43,-0.43,0.42,-1.89,-0.07
35560,0.79,-0.43,-0.43,0.42,-0.77,-1.26
35580,0.79,-0.43,-0.43,0.49,0.0,-1.26
35600,0.79,-0.43,-0.43,-0.49,-0.91,-1.47
35620,0.79,-0.43,-0.43,-0.91,-0.42,-1.75
35640,0.79,-0.43,-0.43,-1.05,-0.7,-1.61
35660,0.79,-0.43,-0.43,-0.42,-1.05,-1.05
35680,0.79,-0.43,-0.43,-0.63,-1.19,-0.84
35700,0.79,-0.42,-0.43,-0.42,-1.26,-0.35
35720,0.79,-0.43,-0.43,-0.35,-2.17,-0.35
35740,0.8,-0.42,-0.43,-1.4,-2.31,0.28
35760,0.8,-0.42,-0.43,-1.75,-2.8,1.05
35780,0.8,-0.42,-0.43,-1.05,-2.73,1.82
35800,0.79,-0.42,-0.43,-0.28,-1.68,2.52
35820,0.79,-0.43,-0.43,-0.21,-1.61,2.1
35840,0.79,-0.43,-0.43,-0.14,-2.31,0.98
35860,0.79,-0.43,-0.43,-0.14,-1.75,-1.19
35880,0.79,-0.42,-0.43,-0.7,-1.96,-0.49
35900,0.79,-0.42,-0.43,0.56,-1.26,1.26
35920,0.79,-0.42,-0.43,2.1,-0.7,3.85
35940,0.79,-0.43,-0.43,2.87,-0.28,3.71
35960,0.79,-0.43,-0.43,1.75,-0.28,1.05
35980,0.79,-0.43,-0.43,1.19,-0.7,-0.28
36000,0.79,-0.43,-0.43,0.42,-0.35,-1.4
36020,0.79,-0.43,-0.43,0.35,-0.56,-0.84
36040,0.79,-0.43,-0.43,0.21,-0.84,-0.84
36060,0.79,-0.43,-0.43,0.42,-0.84,-0.21
36080,0.79,-0.43,-0.43,0.14,-1.12,-0.14
36100,0.79,-0.42,-0.43,0.0,-1.33,0.35
36120,0.79,-0.42,-0.43,0.7,-0.63,1.05
36140,0.79,-0.43,-0.43,1.61,-0.77,1.82
36160,0.79,-0.43,-0.43,1.68,-1.19,2.8
36180,0.79,-0.43,-0.43,0.28,-1.19,0.42
36200,0.79,-0.43,-0.43,0.56,0.07,-2.03
36220,0.79,-0.43,-0.43,0.21,0.63,-2.38
36240,0.79,-0.43,-0.42,-0.14,-0.14,-2.03
36260,0.79,-0.43,-0.43,-0.42,-0.21,-1.75
36280,0.79,-0.43,-0.43,-0.7,-0.56,-1.33
36300,0.79,-0.42,-0.43,-0.63,-0.84,-0.77
36320,0.8,-0.42,-0.43,-0.28,-1.12,-0.35
36340,0.79,-0.42,-0.43,17.85,-1.05,-0.98
36360,0.8,-0.42,-0.43,-0.77,-1.05,-0.98
36380,0.8,-0.43,-0.42,-1.89,-1.68,-0.77
36400,0.79,-0.43,-0.43,-2.8,-2.24,-0.77
36420,0.8,-0.42,-0.43,-2.45,-2.87,0.56
36440,0.8,-0.42,-0.43,-1.47,-3.01,1.54
36460,0.79,-0.42,-0.43,-0.49,-2.38,2.38
36480,0.79,-0.42,-0.43,0.56,-0.56,1.54
36500,0.79,-0.42,-0.43,0.35,-0.49,-0.56
36520,0.8,-0.42,-0.43,17.85,0.0,-1.89
36540,0.79,-0.42,-0.43,0.84,-0.42,-0.63
36560,0.8,-0.42,-0.43,1.54,-1.12,1.68
36580,0.79,-0.42,-0.43,1.75,-1.68,2.66
36600,0.79,-0.42,-0.43,0.98,-1.4,2.31
36620,0.79,-0.43,-0.43,0.7,-1.61,1.82
36640,0.79,-0.43,-0.43,0.42,-1.61,1.54
36660,0.79,-0.42,-0.43,0.07,-1.54,0.7
36680,0.79,-0.42,-0.43,0.07,-1.05,0.35
36700,0.79,-0.42,-0.43,0.07,-0.84,-0.7
36720,0.79,-0.42,-0.43,0.07,-1.05,-0.77
36740,0.79,-0.42,-0.43,1.33,-1.26,-0.14
36760,0.79,-0.42,-0.43,0.63,-0.7,0.77
36780,0.8,-0.42,-0.43,-0.49,-0.98,1.26
36800,0.79,-0.42,-0.43,0.63,-1.4,2.17
36820,0.79,-0.43,-0.43,1.26,-0.98,1.82
36840,0.79,-0.43,-0.43,0.42,-1.26,0.14
36860,0.79,-0.43,-0.43,0.35,-0.49,-1.33
36880,0.79,-0.42,-0.43,0.42,-0.49,-1.47
36900,0.79,-0.42,-0.43,0.0,-1.26,-0.56
36920,0.79,-0.42,-0.43,-0.42,-1.4,-0.63
36940,0.79,-0.42,-0.43,-0.84,-0.84,-1.19
36960,0.8,-0.42,-0.43,-0.7,-1.05,-0.7
36980,0.79,-0.42,-0.43,-0.7,-1.19,-0.91
37000,0.8,-0.42,-0.43,-1.61,-1.33,-0.56
37020,0.8,-0.42,-0.43,-1.4,-1.61,-0.28
37040,0.8,-0.42,-0.43,-1.26,-2.73,-0.42
37060,0.8,-0.42,-0.43,-2.73,-3.01,0.77
37080,0.79,-0.42,-0.44,-2.38,-3.29,1.47
37100,0.79,-0.42,-0.44,-0.63,-2.59,2.8
37120,0.79,-0.42,-0.43,-0.77,-1.89,2.8
37140,0.79,-0.42,-0.44,-0.21,-1.75,1.54
37160,0.79,-0.42,-0.44,0.0,-0.77,-1.75
37180,0.79,-0.42,-0.44,0.21,-0.98,-1.89
37200,0.8,-0.41,-0.44,1.68,-0.49,1.4
37220,0.79,-0.42,-0.43,3.36,-0.7,5.11
37240,0.79,-0.42,-0.43,3.57,-1.82,4.97
37260,0.79,-0.43,-0.43,1.19,-1.75,2.03
37280,0.79,-0.42,-0.44,0.91,-0.56,-0.49
37300,0.79,-0.43,-0.43,0.49,-0.35,-1.12
37320,0.79,-0.42,-0.43,0.0,-0.84,-0.91
37340,0.79,-0.42,-0.44,0.28,-0.56,-0.63
37360,0.79,-0.42,-0.43,0.42,-0.49,-0.35
37380,0.79,-0.42,-0.43,0.49,-0.35,-0.77
37400,0.79,-0.42,-0.44,0.7,-0.77,0.49
37420,0.79,-0.42,-0.43,0.7,-0.21,2.17
37440,0.79,-0.43,-0.43,1.4,-1.4,2.66
37460,0.79,-0.43,-0.43,0.35,-1.19,0.07
37480,0.79,-0.43,-0.43,0.42,0.14,-2.66
37500,0.8,-0.42,-0.43,0.49,-0.21,-1.75
37520,0.79,-0.42,-0.43,0.35,-0.7,-0.91
37540,0.8,-0.42,-0.43,-0.7,-0.42,-0.91
37560,0.79,-0.42,-0.43,-0.42,-0.7,-0.35
37580,0.79,-0.42,-0.43,-0.14,-0.84,-0.14
37600,0.79,-0.42,-0.43,-1.19,-0.91,-1.61
37620,0.79,-0.42,-0.43,-1.33,-0.84,-2.59
37640,0.8,-0.42,-0.43,-0.35,-2.24,-0.77
37660,0.8,-0.42,-0.43,-0.91,-2.52,0.84
37680,0.8,-0.42,-0.44,-1.47,-1.61,1.4
37700,0.79,-0.42,-0.44,-0.35,-1.75,1.19
37720,0.79,-0.42,-0.44,-0.07,-1.75,1.61
37740,0.79,-0.42,-0.43,0.0,-1.68,1.19
37760,0.79,-0.42,-0.44,0.49,-0.42,-0.77
37780,0.79,-0.42,-0.44,1.54,0.0,-1.82
37800,0.79,-0.42,-0.43,2.17,-0.35,-0.49
37820,0.79,-0.42,-0.43,1.89,-0.77,1.4
37840,0.79,-0.42,-0.43,1.68,-0.84,1.4
37860,0.79,-0.42,-0.43,1.26,-1.26,1.68
37880,0.79,-0.42,-0.43,1.26,-1.82,2.73
37900,0.79,-0.43,-0.43,0.42,-1.26,1.26
37920,0.79,-0.42,-0.43,0.28,-0.98,0.77
37940,0.79,-0.42,-0.43,1.33,-0.56,0.49
37960,0.79,-0.42,-0.43,0.21,-0.56,-0.07
37980,0.79,-0.42,-0.43,0.35,-0.7,0.07
38000,0.79,-0.42,-0.43,1.26,0.21,0.28
38020,0.79,-0.42,-0.43,0.63,-0.49,0.28
38040,0.79,-0.42,-0.43,0.77,-0.77,0.35
38060,0.79,-0.42,-0.43,0.56,-0.49,0.0
38080,0.8,-0.42,-0.43,0.56,-0.77,-0.63
38100,0.79,-0.42,-0.43,0.49,-0.98,-0.98
38120,0.79,-0.42,-0.43,-0.42,-0.7,-1.26
38140,0.8,-0.42,-0.43,-1.05,-1.05,-1.68
38160,0.79,-0.42,-0.43,-0.91,-1.05,-0.77
38180,0.8,-0.42,-0.43,-1.12,-0.98,-1.05
38200,0.8,-0.42,-0.43,-1.54,-1.19,-1.61
38220,0.79,-0.42,-0.43,-1.47,-0.7,-2.24
38240,0.8,-0.41,-0.43,-0.91,-0.56,-1.33
38260,0.8,-0.41,-0.43,-1.33,-1.82,0.14
38280,0.8,-0.41,-0.43,-0.49,-1.19,0.21
38300,0.8,-0.41,-0.43,-0.56,-1.75,0.07
38320,0.8,-0.41,-0.43,-0.98,-1.89,1.54
38340,0.8,-0.41,-0.43,-0.21,-1.96,2.59
38360,0.79,-0.42,-0.43,0.0,-1.4,1.47
38380,0.79,-0.41,-0.43,0.0,-1.61,-0.49
38400,0.8,-0.41,-0.43,0.07,-1.54,-0.98
38420,0.79,-0.41,-0.43,0.14,-1.47,0.77
