timestamp,accX,accY,accZ,gyrX,gyrY,gyrZ
0,0.62,-0.24,0.77,3.36,-3.08,4.34
20,0.62,-0.23,0.77,1.54,-4.76,4.27
40,0.62,-0.24,0.77,2.03,-5.46,3.57
60,0.63,-0.23,0.77,0.63,-4.34,3.57
80,0.63,-0.24,0.76,0.28,-4.27,3.5
100,0.63,-0.23,0.76,0.7,-3.57,3.92
120,0.63,-0.24,0.76,0.21,-2.59,3.78
140,0.63,-0.24,0.77,0.98,-2.1,3.29
160,0.63,-0.24,0.76,1.26,-2.45,2.73
180,0.63,-0.23,0.76,1.19,-1.82,2.52
200,0.63,-0.24,0.76,0.63,-2.17,1.96
220,0.63,-0.24,0.76,0.91,-2.24,1.89
240,0.64,-0.24,0.76,0.35,-1.33,1.68
260,0.64,-0.24,0.76,0.0,0.14,1.05
280,0.63,-0.25,0.76,0.49,-0.21,1.05
300,0.63,-0.24,0.76,0.42,-0.7,0.98
320,0.63,-0.24,0.76,0.07,0.42,0.84
340,0.63,-0.24,0.76,0.35,0.07,1.05
360,0.63,-0.24,0.76,0.28,0.42,0.63
380,0.62,-0.24,0.76,0.14,-0.07,0.07
400,0.62,-0.24,0.76,0.42,-0.84,0.21
420,0.63,-0.24,0.76,0.14,-0.49,-0.35
440,0.62,-0.25,0.76,0.42,-0.56,-0.28
460,0.63,-0.25,0.77,0.0,-0.14,0.14
480,0.62,-0.24,0.76,-0.28,-0.28,0.35
500,0.62,-0.25,0.76,0.28,-1.4,0.84
520,0.62,-0.25,0.76,0.28,-2.24,1.33
540,0.62,-0.24,0.76,0.07,-1.75,1.12
560,0.62,-0.24,0.76,-0.35,-2.38,0.91
580,0.63,-0.25,0.76,-0.56,-2.52,0.63
600,0.63,-0.25,0.76,-0.35,-2.1,0.28
620,0.63,-0.25,0.76,-0.7,-2.24,0.14
640,0.63,-0.24,0.76,-0.98,-2.45,0.35
660,0.63,-0.25,0.76,-1.54,-2.24,0.28
680,0.63,-0.24,0.76,-1.19,-1.61,0.49
700,0.63,-0.24,0.76,-1.4,-1.19,0.42
720,0.63,-0.25,0.76,-1.19,-0.84,0.14
740,0.63,-0.24,0.76,-1.19,-0.84,0.14
760,0.63,-0.24,0.77,-1.61,-0.49,0.28
780,0.63,-0.25,0.76,-1.75,-0.84,0.14
800,0.62,-0.25,0.76,-1.4,-0.35,-0.49
820,0.63,-0.25,0.76,-1.47,-0.63,-0.56
840,0.63,-0.25,0.76,-0.56,-0.91,-0.49
860,0.64,-0.25,0.76,-1.12,0.77,-1.68
880,0.63,-0.26,0.75,-1.68,-0.98,-1.68
900,0.62,-0.26,0.76,0.14,-2.52,1.4
920,0.63,-0.25,0.76,0.49,-2.24,1.54
940,0.63,-0.25,0.76,-17.92,-2.17,0.7
960,0.63,-0.25,0.76,0.14,-1.82,0.28
980,0.63,-0.25,0.76,-0.56,-1.05,-0.14
1000,0.63,-0.24,0.76,-0.91,-0.63,-0.35
1020,0.63,-0.25,0.76,-1.4,-0.7,-0.77
1040,0.63,-0.25,0.76,-1.05,-1.19,-0.42
1060,0.63,-0.25,0.76,-0.56,-1.68,-0.07
1080,0.63,-0.25,0.76,-0.07,-1.12,0.42
1100,0.63,-0.25,0.76,-0.49,-1.47,0.56
1120,0.63,-0.25,0.76,-0.07,-1.26,0.14
1140,0.63,-0.25,0.76,-0.14,-1.47,0.21
1160,0.63,-0.25,0.76,-0.35,-1.19,-0.07
1180,0.63,-0.25,0.76,0.07,-0.77,0.0
1200,0.63,-0.25,0.76,-0.42,-0.56,-0.21
1220,0.62,-0.25,0.76,-0.28,-0.42,-0.07
1240,0.63,-0.26,0.76,-0.21,-0.77,0.21
1260,0.63,-0.25,0.76,-0.42,-0.49,0.07
1280,0.63,-0.25,0.76,-0.28,-0.56,-0.07
1300,0.63,-0.25,0.76,-0.07,-0.56,0.0
1320,0.63,-0.26,0.76,0.07,-0.7,0.35
1340,0.63,-0.26,0.76,0.14,-0.98,0.21
1360,0.63,-0.25,0.76,-0.07,-1.19,0.0
1380,0.63,-0.25,0.76,-0.35,-1.26,-0.07
1400,0.63,-0.25,0.76,0.28,-1.05,0.28
1420,0.62,-0.25,0.76,-0.21,-0.98,0.14
1440,0.62,-0.26,0.76,0.0,-1.4,-0.14
1460,0.63,-0.25,0.76,0.0,-1.61,-0.07
1480,0.63,-0.25,0.76,-0.07,-1.68,-0.07
1500,0.63,-0.25,0.76,0.14,-1.05,0.14
1520,0.63,-0.25,0.76,-0.21,-0.63,0.35
1540,0.63,-0.26,0.76,0.42,-0.42,0.63
1560,0.63,-0.25,0.76,0.56,-0.56,0.56
1580,0.62,-0.26,0.76,0.7,-1.05,0.42
1600,0.63,-0.25,0.76,0.42,-0.84,0.21
1620,0.63,-0.25,0.76,0.49,-0.63,0.0
1640,0.62,-0.25,0.76,0.49,-0.28,0.0
1660,0.62,-0.26,0.76,0.42,-0.49,0.14
1680,0.62,-0.25,0.76,0.07,-1.05,0.28
1700,0.63,-0.26,0.76,-0.14,-0.91,0.21
1720,0.63,-0.25,0.76,0.42,-0.42,0.63
1740,0.62,-0.26,0.76,-0.07,-0.77,0.7
1760,0.62,-0.26,0.76,0.35,-2.17,1.05
1780,0.62,-0.25,0.76,0.07,-2.38,1.47
1800,0.63,-0.25,0.76,0.98,-1.89,1.05
1820,0.63,-0.25,0.76,0.21,-1.4,0.77
1840,0.62,-0.25,0.76,0.35,-1.61,0.49
1860,0.63,-0.25,0.76,0.07,-0.98,0.49
1880,0.63,-0.25,0.76,-0.14,-0.07,0.35
1900,0.62,-0.25,0.76,0.0,-0.14,0.28
1920,0.62,-0.25,0.76,0.14,-0.21,0.42
1940,0.63,-0.25,0.76,0.14,-0.14,0.42
1960,0.63,-0.26,0.76,0.42,-0.21,0.35
1980,0.62,-0.25,0.76,0.77,0.0,0.42
2000,0.62,-0.25,0.76,1.05,-0.35,0.56
2020,0.62,-0.26,0.76,1.26,-0.42,0.49
2040,0.62,-0.26,0.76,0.56,-0.77,0.42
2060,0.62,-0.26,0.76,0.35,-1.19,0.49
2080,0.62,-0.26,0.76,0.07,-1.47,0.56
2100,0.62,-0.26,0.76,-0.28,-2.59,0.84
2120,0.63,-0.26,0.76,0.35,-2.45,1.05
2140,0.63,-0.26,0.76,-0.28,-1.96,0.91
2160,0.62,-0.26,0.76,-0.07,-2.24,0.77
2180,0.62,-0.26,0.76,-0.21,-1.96,0.84
2200,0.62,-0.26,0.76,0.0,-2.1,0.49
2220,0.62,-0.26,0.76,-0.21,-2.66,0.21
2240,0.63,-0.25,0.76,0.0,-2.52,0.35
2260,0.62,-0.25,0.76,-0.14,-2.31,0.56
2280,0.63,-0.26,0.76,-0.28,-2.24,0.42
2300,0.63,-0.25,0.76,-0.35,-1.61,0.49
2320,0.63,-0.26,0.76,-0.42,-1.4,0.07
2340,0.63,-0.25,0.76,-0.49,-1.33,-0.21
2360,0.63,-0.26,0.76,-0.56,-1.05,-0.07
2380,0.63,-0.26,0.76,-0.28,-1.26,0.07
2400,0.62,-0.26,0.76,-0.14,-1.4,-0.14
2420,0.63,-0.25,0.76,0.07,-1.54,-0.07
2440,0.63,-0.26,0.76,0.21,-1.47,-0.07
2460,0.63,-0.26,0.76,0.0,-0.84,-0.21
2480,0.62,-0.26,0.76,0.28,-1.33,-0.14
2500,0.62,-0.26,0.76,0.0,-1.47,0.28
2520,0.63,-0.25,0.76,0.42,-1.33,0.28
2540,0.63,-0.26,0.76,0.63,-1.19,0.07
2560,0.63,-0.26,0.76,-0.21,-1.33,-0.07
2580,0.63,-0.26,0.76,-0.77,-1.12,-0.35
2600,0.63,-0.26,0.76,-0.91,-1.05,-0.07
2620,0.62,-0.26,0.75,-0.84,-1.47,0.56
2640,0.62,-0.26,0.76,0.14,-3.22,1.96
2660,0.62,-0.26,0.75,0.35,-4.27,2.73
2680,0.63,-0.26,0.76,0.21,-3.99,2.45
2700,0.63,-0.26,0.76,-1.05,-2.94,1.89
2720,0.63,-0.27,0.76,-1.47,-2.03,1.05
2740,0.62,-0.26,0.75,-0.42,-2.59,1.47
2760,0.63,-0.26,0.76,-1.12,-3.15,1.75
2780,0.63,-0.26,0.75,-1.68,-1.47,1.82
2800,0.63,-0.26,0.75,-1.26,-1.75,1.75
2820,0.63,-0.26,0.76,-0.56,-1.47,1.68
2840,0.63,-0.27,0.76,0.49,-2.03,1.05
2860,0.63,-0.26,0.75,0.42,-2.17,0.63
2880,0.63,-0.26,0.75,0.7,-2.8,0.77
2900,0.63,-0.27,0.75,0.56,-2.8,0.98
2920,0.63,-0.27,0.75,0.49,-1.96,0.91
2940,0.63,-0.27,0.75,0.35,-1.4,0.42
2960,0.63,-0.26,0.75,0.49,-0.91,0.21
2980,0.64,-0.26,0.75,-0.07,-0.14,0.07
3000,0.64,-0.26,0.75,-0.56,0.42,-0.14
3020,0.63,-0.27,0.75,0.21,0.42,-0.14
3040,0.63,-0.27,0.75,0.56,0.63,-0.21
3060,0.63,-0.26,0.75,0.35,0.49,-0.56
3080,0.63,-0.26,0.75,0.42,0.35,-0.63
3100,0.63,-0.26,0.76,0.42,0.7,-0.63
3120,0.63,-0.26,0.76,0.35,0.28,-0.7
3140,0.63,-0.27,0.76,0.42,0.56,-0.63
3160,0.62,-0.26,0.76,0.35,0.63,-0.63
3180,0.63,-0.26,0.76,0.07,0.84,-0.56
3200,0.62,-0.27,0.76,-0.28,0.0,-0.7
3220,0.62,-0.27,0.76,0.07,-0.35,-0.07
3240,0.62,-0.26,0.76,0.56,-0.49,0.21
3260,0.63,-0.26,0.76,0.21,-0.14,-0.21
3280,0.63,-0.26,0.76,0.63,-0.14,-0.42
3300,0.62,-0.26,0.76,0.14,-0.42,-0.14
3320,0.63,-0.26,0.76,0.21,-0.35,-0.07
3340,0.62,-0.26,0.76,0.21,-0.21,-0.07
3360,0.62,-0.26,0.76,0.49,0.0,0.07
3380,0.62,-0.26,0.76,0.42,-0.49,0.28
3400,0.62,-0.26,0.76,0.56,-0.56,0.42
3420,0.62,-0.26,0.76,0.84,0.21,0.49
3440,0.62,-0.26,0.76,1.4,-0.07,0.49
3460,0.62,-0.26,0.76,1.12,0.07,0.63
3480,0.62,-0.26,0.76,0.98,-0.49,0.56
3500,0.62,-0.27,0.76,1.05,-0.63,0.42
3520,0.62,-0.27,0.76,0.91,-1.54,0.42
3540,0.62,-0.27,0.76,0.21,-2.24,0.49
3560,0.5,-0.27,0.76,0.28,-2.52,0.77
3580,0.62,-0.26,0.76,0.35,-2.52,0.91
3600,0.62,-0.26,0.76,0.14,-1.89,0.7
3620,0.62,-0.26,0.76,-0.07,-1.89,0.49
3640,0.62,-0.26,0.76,0.07,-2.31,0.21
3660,0.63,-0.26,0.76,-0.56,-1.82,0.35
3680,0.62,-0.26,0.76,-0.28,-1.47,0.21
3700,0.62,-0.26,0.76,-0.35,-2.03,0.07
3720,0.62,-0.26,0.76,-0.14,-2.24,0.07
3740,0.63,-0.26,0.76,-0.07,-1.82,0.07
3760,0.62,-0.26,0.76,-0.14,-1.47,-0.21
3780,0.63,-0.26,0.76,0.42,-1.82,-0.21
3800,0.62,-0.26,0.76,0.07,-1.19,-0.14
3820,0.62,-0.26,0.76,0.21,-1.4,-0.28
3840,0.63,-0.26,0.75,-0.63,-0.77,-1.05
3860,0.62,-0.26,0.75,-17.36,-1.82,-0.28
3880,0.62,-0.26,0.76,0.91,-2.24,0.35
3900,0.63,-0.26,0.76,0.14,-1.12,-0.49
3920,0.62,-0.26,0.76,0.63,-0.91,-0.84
3940,0.62,-0.26,0.76,0.49,-0.56,-0.84
3960,0.63,-0.26,0.76,-0.21,17.5,-1.54
3980,0.62,-0.27,0.76,0.42,-0.98,-1.05
4000,0.62,-0.27,0.76,0.42,-1.12,-0.63
4020,0.62,-0.26,0.76,0.98,-1.61,-0.77
4040,0.62,-0.26,0.76,0.84,-2.1,-0.63
4060,0.63,-0.26,0.76,0.91,-1.47,-0.21
4080,0.63,-0.26,0.76,0.14,-0.84,-0.42
4100,0.63,-0.26,0.76,0.77,-0.63,-0.42
4120,0.62,-0.26,0.76,0.14,-0.42,-0.63
4140,0.63,-0.26,0.76,0.49,-0.42,-0.49
4160,0.62,-0.26,0.76,-0.07,-1.05,-0.42
4180,0.62,-0.26,0.76,0.42,-1.19,0.07
4200,0.63,-0.26,0.76,0.56,-1.33,0.28
4220,0.62,-0.26,0.76,1.26,-1.54,0.35
4240,0.63,-0.26,0.76,0.77,-1.33,0.35
4260,0.63,-0.26,0.76,0.14,-1.68,-0.07
4280,0.63,-0.26,0.76,0.35,-1.82,0.0
4300,0.63,-0.25,0.76,0.0,-1.19,-0.07
4320,0.63,-0.26,0.76,0.42,-1.05,-0.35
4340,0.63,-0.26,0.76,0.91,-0.21,-0.56
4360,0.62,-0.25,0.76,1.26,-0.7,0.0
4380,0.63,-0.26,0.76,1.47,-1.19,0.77
4400,0.63,-0.25,0.76,2.1,-0.56,0.49
4420,0.63,-0.25,0.76,1.61,-0.49,-0.56
4440,0.64,-0.26,0.76,0.63,0.91,-2.03
4460,0.63,-0.26,0.76,2.87,0.49,-1.47
4480,0.62,-0.25,0.76,2.94,-0.42,-0.21
4500,0.62,-0.24,0.76,1.96,-0.84,-0.56
4520,0.63,-0.25,0.76,0.84,-0.91,-0.28
4540,0.62,-0.26,0.76,2.66,-1.47,1.05
4560,0.62,-0.24,0.77,2.17,-0.77,1.33
4580,0.62,-0.24,0.77,1.4,0.07,0.42
4600,0.62,-0.25,0.76,0.0,0.0,-0.21
4620,0.62,-0.25,0.77,0.28,-0.49,0.0
4640,0.62,-0.25,0.77,-0.14,-0.14,0.35
4660,0.62,-0.25,0.76,-0.07,-0.07,0.07
4680,0.62,-0.25,0.76,0.14,-0.42,0.07
4700,0.63,-0.25,0.76,0.42,-0.49,0.35
4720,0.62,-0.26,0.76,0.21,-0.77,0.63
4740,0.62,-0.25,0.76,0.49,-0.91,0.77
4760,0.62,-0.25,0.76,0.91,-0.84,1.26
4780,0.62,-0.25,0.76,0.42,-0.35,1.19
4800,0.62,-0.25,0.76,0.35,-1.19,1.12
4820,0.62,-0.25,0.77,0.21,-1.05,0.77
4840,0.62,-0.25,0.76,0.42,-1.33,0.84
4860,0.62,-0.25,0.77,0.42,-1.26,0.7
4880,0.62,-0.26,0.76,0.14,-0.84,0.14
4900,0.62,-0.26,0.77,0.42,-1.19,0.28
4920,0.62,-0.26,0.76,0.28,-1.26,0.56
4940,0.62,-0.26,0.76,-0.35,-2.31,0.7
4960,0.62,-0.26,0.76,0.0,-2.45,1.26
4980,0.62,-0.26,0.77,0.35,-1.82,1.33
5000,0.62,-0.25,0.77,0.56,-1.96,1.05
5020,0.62,-0.25,0.76,0.21,-2.17,0.98
5040,0.62,-0.25,0.77,0.07,-2.24,0.7
5060,0.62,-0.25,0.76,-0.56,-2.17,0.49
5080,0.62,-0.25,0.76,-0.56,-2.03,-0.28
5100,0.62,-0.26,0.76,-0.14,-1.75,-0.35
5120,0.62,-0.26,0.76,-0.14,-2.17,-0.21
5140,0.62,-0.25,0.76,-0.56,-2.31,0.14
5160,0.62,-0.25,0.76,-0.07,-2.38,0.35
5180,0.63,-0.25,0.76,0.28,-1.96,0.35
5200,0.62,-0.26,0.76,-0.21,-1.61,0.21
5220,0.62,-0.25,0.76,-0.07,-2.45,0.28
5240,0.62,-0.26,0.76,0.42,-3.36,0.56
5260,0.62,-0.26,0.75,1.68,-6.65,1.68
5280,0.62,-0.26,0.76,2.66,-8.12,1.96
5300,0.63,-0.25,0.76,0.56,-5.25,0.77
5320,0.64,-0.25,0.76,0.0,-3.15,0.35
5340,0.63,-0.25,0.76,0.28,-3.08,1.05
5360,0.63,-0.25,0.76,0.14,-2.17,1.26
5380,0.63,-0.24,0.76,-0.07,-0.98,1.12
5400,0.63,-0.25,0.76,0.14,-1.68,0.63
5420,0.63,-0.25,0.76,0.28,-1.4,0.42
5440,0.63,-0.25,0.76,-0.14,-1.19,0.63
5460,0.63,-0.25,0.75,-0.49,-0.91,0.49
5480,0.63,-0.26,0.75,-0.21,-0.84,0.63
5500,0.63,-0.26,0.75,-0.28,-0.91,0.28
5520,0.63,-0.26,0.75,-0.07,-0.98,0.35
5540,0.63,-0.26,0.75,0.0,-0.56,0.49
5560,0.63,-0.26,0.75,-0.49,-1.54,0.49
5580,0.63,-0.26,0.75,0.56,-2.66,1.05
5600,0.64,-0.26,0.75,0.07,-1.89,0.77
5620,0.63,-0.26,0.75,0.07,-0.91,-0.07
5640,0.63,-0.26,0.75,-0.14,-0.98,-0.14
5660,0.63,-0.25,0.76,-0.07,-1.89,0.21
5680,0.63,-0.25,0.76,-0.35,-1.12,0.28
5700,0.63,-0.26,0.75,-17.78,-1.12,0.84
5720,0.64,-0.25,0.76,0.21,-1.12,0.91
5740,0.63,-0.25,0.75,0.0,-0.14,0.7
5760,0.63,-0.26,0.75,0.98,-1.05,1.26
5780,0.63,-0.26,0.75,0.77,-0.91,1.19
5800,0.63,-0.25,0.76,0.35,-0.98,1.12
5820,0.63,-0.25,0.76,-0.21,-0.35,0.63
5840,0.63,-0.25,0.75,0.14,-0.21,0.63
5860,0.63,-0.26,0.76,-0.35,0.14,0.14
5880,0.64,-0.26,0.75,-17.85,0.7,-0.21
5900,0.63,-0.26,0.75,-0.42,0.21,-0.28
5920,0.63,-0.26,0.76,-0.49,0.7,-0.28
5940,0.63,-0.27,0.76,-0.49,0.42,0.14
5960,0.62,-0.26,0.75,-0.35,0.49,0.0
5980,0.63,-0.26,0.76,0.42,-0.21,0.0
6000,0.63,-0.26,0.76,0.7,0.21,-0.28
6020,0.63,-0.26,0.76,1.05,0.42,-0.56
6040,0.63,-0.25,0.76,0.63,1.33,-1.26
6060,0.62,-0.26,0.75,0.77,1.61,-1.68
6080,0.62,-0.26,0.76,0.42,0.14,-0.63
6100,0.62,-0.25,0.76,0.7,-0.42,0.0
6120,0.62,-0.24,0.76,1.19,0.91,-0.98
6140,0.63,-0.25,0.76,0.91,2.31,-2.73
6160,0.62,-0.26,0.76,1.68,1.89,-2.73
6180,0.62,-0.26,0.76,0.84,2.31,-2.66
6200,0.62,-0.26,0.76,1.75,0.77,-2.17
6220,0.6,-0.26,0.76,2.03,-0.7,-0.49
6240,0.62,-0.25,0.77,2.03,-1.26,0.07
6260,0.62,-0.25,0.77,0.84,-0.49,-0.14
6280,0.62,-0.25,0.76,1.4,-0.28,-0.91
6300,0.62,-0.26,0.77,1.61,-1.4,-1.12
6320,0.61,-0.25,0.77,1.19,-2.1,-0.77
6340,0.62,-0.25,0.76,0.63,-2.45,-0.7
6360,0.62,-0.25,0.77,0.49,-3.64,-0.28
6380,0.62,-0.25,0.76,1.05,-4.34,0.91
6400,0.62,-0.25,0.77,2.24,-5.25,2.03
6420,0.62,-0.23,0.78,1.68,-4.34,2.31
6440,0.65,-0.21,0.77,0.49,1.33,-0.28
6460,0.65,-0.24,0.75,-3.64,2.87,-5.95
6480,0.64,-0.26,0.75,-5.11,1.47,-7.21
6500,0.63,-0.26,0.77,-4.48,1.61,-6.51
6520,0.65,-0.25,0.76,-6.37,7.21,-7.63
6540,0.65,-0.26,0.75,-7.28,11.76,-10.57
6560,0.63,-0.26,0.77,-4.9,15.68,-9.03
6580,0.58,-0.24,0.77,-3.36,10.22,-3.08
6600,0.57,-0.25,0.78,-0.91,1.12,-0.14
6620,0.58,-0.24,0.78,1.96,-2.66,1.47
6640,0.6,-0.23,0.79,3.29,-4.48,0.91
6660,0.61,-0.23,0.79,3.71,-3.85,-0.42
6680,0.61,-0.23,0.78,1.68,-1.4,-1.4
6700,0.61,-0.24,0.78,1.05,-0.42,-2.24
6720,0.61,-0.24,0.78,0.0,-0.07,-1.61
6740,0.61,-0.24,0.78,-1.19,0.21,-1.75
6760,0.61,-0.24,0.77,-1.96,-0.14,-1.89
6780,0.62,-0.24,0.77,-0.98,0.28,-1.19
6800,0.62,-0.24,0.77,-0.28,0.21,-0.49
6820,0.61,-0.25,0.77,-0.21,0.7,-0.49
6840,0.61,-0.24,0.77,0.21,0.42,-0.35
6860,0.61,-0.23,0.77,0.07,-0.7,-0.42
6880,0.61,-0.23,0.78,0.49,-0.63,-0.28
6900,0.61,-0.24,0.78,0.07,0.42,-0.35
6920,0.6,-0.24,0.78,0.28,0.56,-0.84
6940,0.61,-0.24,0.78,0.42,0.14,-0.98
6960,0.61,-0.24,0.79,0.7,0.84,-0.7
6980,0.6,-0.24,0.78,0.42,-0.07,0.07
7000,0.6,-0.24,0.78,0.35,-0.07,0.7
7020,0.61,-0.24,0.78,0.49,-0.07,0.7
7040,0.6,-0.24,0.78,1.19,-0.98,0.84
7060,0.61,-0.23,0.78,0.91,-0.98,0.84
7080,0.61,-0.24,0.78,0.49,-0.84,0.42
7100,0.61,-0.24,0.79,0.91,-0.49,0.63
7120,0.6,-0.24,0.78,0.7,-0.7,0.63
7140,0.61,-0.24,0.79,0.7,-0.91,0.7
7160,0.61,-0.24,0.78,0.98,-0.7,0.77
7180,0.61,-0.24,0.78,0.77,-0.77,0.56
7200,0.61,-0.24,0.78,1.26,-1.05,1.05
7220,0.6,-0.24,0.78,0.42,-1.68,1.26
7240,0.6,-0.24,0.78,1.12,-1.4,1.05
7260,0.61,-0.24,0.78,0.98,-1.61,0.84
7280,0.61,-0.24,0.78,1.26,-1.19,0.98
7300,0.6,-0.24,0.78,1.47,-0.91,0.77
7320,0.6,-0.24,0.78,0.91,-0.91,0.7
7340,0.61,-0.24,0.78,1.12,-0.63,0.7
7360,0.61,-0.24,0.78,0.56,-0.7,0.49
7380,0.61,-0.24,0.78,0.56,-0.49,-0.07
7400,0.6,-0.24,0.78,0.84,-0.28,-0.35
7420,0.6,-0.24,0.78,1.05,-0.63,0.07
7440,0.6,-0.24,0.78,0.56,-0.7,0.0
7460,0.6,-0.24,0.78,0.49,-0.98,0.49
7480,0.6,-0.24,0.78,0.21,-1.68,0.63
7500,0.6,-0.24,0.78,0.21,-1.54,0.42
7520,0.61,-0.24,0.78,0.21,-1.47,0.63
7540,0.6,-0.24,0.78,-0.21,-1.54,0.77
7560,0.6,-0.24,0.78,-0.42,-1.47,0.42
7580,0.6,-0.23,0.78,-0.28,-2.1,0.14
7600,0.6,-0.24,0.79,-0.07,-1.89,0.0
7620,0.6,-0.24,0.78,0.0,-1.75,0.35
7640,0.61,-0.23,0.78,-0.28,-1.68,-0.14
7660,0.61,-0.24,0.78,-0.49,-1.19,-0.14
7680,0.6,-0.24,0.79,0.0,-0.91,-0.14
7700,0.6,-0.24,0.78,-0.28,-1.47,-0.14
7720,0.6,-0.24,0.78,-0.49,-1.47,0.0
7740,0.61,-0.23,0.78,0.07,-1.54,0.0
7760,0.6,-0.24,0.78,-0.35,-1.12,-0.14
7780,0.6,-0.24,0.78,-0.07,-1.05,-0.21
7800,0.61,-0.24,0.78,-0.49,-0.7,-0.49
7820,0.61,-0.24,0.78,-0.77,-0.56,-0.84
7840,0.61,-0.24,0.79,-1.12,0.07,-0.42
7860,0.6,-0.24,0.78,-0.84,-0.07,-0.49
7880,0.6,-0.24,0.79,-0.63,-0.28,-0.63
7900,0.61,-0.24,0.79,-0.63,-0.56,-0.49
7920,0.6,-0.24,0.78,-0.35,-0.42,-0.42
7940,0.6,-0.24,0.78,-0.28,-0.35,-0.49
7960,0.6,-0.24,0.78,-0.42,-0.35,-0.63
7980,0.6,-0.24,0.78,-0.49,-0.35,-0.49
8000,0.61,-0.24,0.78,-0.28,-0.14,-0.35
8020,0.6,-0.24,0.78,-0.56,-0.77,-0.35
8040,0.6,-0.24,0.78,-0.28,-1.19,-0.21
8060,0.61,-0.24,0.79,-0.07,-1.82,0.0
8080,0.61,-0.24,0.79,0.7,-0.7,0.07
8100,0.61,-0.24,0.78,0.7,-0.84,0.63
8120,0.6,-0.24,0.78,1.05,-0.35,0.56
8140,0.6,-0.24,0.79,0.7,-0.63,0.49
8160,0.6,-0.24,0.79,0.35,-0.56,0.56
8180,0.6,-0.24,0.79,0.49,-0.49,0.21
8200,0.6,-0.23,0.79,0.56,-0.49,-0.28
8220,0.6,-0.24,0.79,0.98,-0.77,0.07
8240,0.6,-0.24,0.79,1.12,-0.84,0.28
8260,0.6,-0.24,0.79,0.7,-0.21,0.21
8280,0.6,-0.24,0.79,0.84,-0.42,0.35
8300,0.6,-0.24,0.79,0.56,-0.42,0.56
8320,0.6,-0.24,0.78,0.7,-0.63,0.56
8340,0.6,-0.24,0.79,0.77,-1.19,0.49
8360,0.6,-0.24,0.78,1.12,-1.4,0.63
8380,0.6,-0.24,0.79,1.05,-0.98,0.56
8400,0.6,-0.24,0.79,0.77,-0.7,0.77
8420,0.6,-0.23,0.79,0.7,-0.7,0.7
8440,0.6,-0.23,0.79,0.77,-0.91,0.63
8460,0.6,-0.23,0.78,1.05,-1.47,0.7
8480,0.6,-0.24,0.79,0.84,-1.05,0.35
8500,0.6,-0.24,0.79,1.26,-0.35,0.21
8520,0.59,-0.24,0.78,0.49,-0.7,0.21
8540,0.6,-0.24,0.78,0.63,-1.75,0.49
8560,0.6,-0.24,0.78,0.21,-1.96,0.63
8580,0.6,-0.24,0.78,0.49,-2.24,0.7
8600,0.6,-0.24,0.78,0.07,-2.52,0.98
8620,0.59,-0.24,0.78,0.35,-3.57,1.61
8640,0.59,-0.24,0.79,0.42,-3.78,2.24
8660,0.6,-0.23,0.78,-0.35,-3.15,1.19
8680,0.6,-0.24,0.79,-0.07,-3.43,0.63
8700,0.6,-0.24,0.78,-0.21,-2.38,0.42
8720,0.6,-0.24,0.78,-0.21,-2.1,0.28
8740,0.6,-0.24,0.78,-0.63,-2.17,0.14
8760,0.61,-0.23,0.78,-0.49,-1.96,-0.14
8780,0.61,-0.23,0.78,-0.42,-2.1,0.14
8800,0.61,-0.24,0.78,-0.42,-0.7,-0.14
8820,0.6,-0.24,0.78,0.0,-0.91,-0.42
8840,0.6,-0.23,0.78,0.35,-1.26,-0.07
8860,0.61,-0.24,0.78,-0.14,-1.33,0.0
8880,0.6,-0.24,0.79,-0.35,-0.84,-0.14
8900,0.6,-0.24,0.78,-0.49,-0.63,-0.35
8920,0.6,-0.24,0.78,0.0,-1.4,0.0
8940,0.6,-0.24,0.78,0.42,-1.4,0.63
8960,0.6,-0.23,0.78,0.14,-0.91,0.63
8980,0.61,-0.24,0.78,-0.28,-0.77,-0.42
9000,0.6,-0.24,0.79,-0.21,-1.61,-0.56
9020,0.6,-0.24,0.78,-0.14,-0.91,0.0
9040,0.6,-0.24,0.78,-0.28,-1.12,-0.35
9060,0.6,-0.24,0.78,-0.56,-0.98,-0.49
9080,0.6,-0.24,0.78,-0.07,-0.77,-0.35
9100,0.6,-0.24,0.78,-0.07,-1.47,-0.28
9120,0.6,-0.24,0.79,0.21,-1.19,0.07
9140,0.6,-0.24,0.78,1.12,-1.96,0.49
9160,0.6,-0.24,0.78,0.56,-3.22,0.56
9180,0.6,-0.24,0.78,0.21,-4.13,1.33
9200,0.61,-0.24,0.79,0.98,-3.5,1.33
9220,0.61,-0.23,0.78,0.56,-1.75,0.84
9240,0.61,-0.24,0.78,0.49,-0.49,0.49
9260,0.61,-0.24,0.78,0.84,0.21,0.63
9280,0.6,-0.24,0.78,0.63,-0.63,1.05
9300,0.6,-0.24,0.78,0.49,-1.75,1.05
9320,0.61,-0.23,0.78,0.0,-1.47,0.63
9340,0.61,-0.24,0.78,0.7,-0.49,0.63
9360,0.61,-0.24,0.78,0.7,-0.49,0.84
9380,0.6,-0.24,0.78,0.56,-0.7,1.05
9400,0.6,-0.24,0.78,1.12,-1.4,0.7
9420,0.6,-0.24,0.78,0.84,-1.47,0.91
9440,0.61,-0.24,0.78,0.77,-1.54,1.19
9460,0.6,-0.24,0.78,0.91,-1.26,0.98
9480,0.6,-0.24,0.78,0.98,-1.54,0.91
9500,0.61,-0.24,0.78,0.98,-1.61,1.26
9520,0.6,-0.24,0.78,1.26,-1.47,1.05
9540,0.6,-0.24,0.78,1.12,-1.68,1.05
9560,0.61,-0.24,0.78,0.77,-1.47,1.19
9580,0.6,-0.24,0.78,0.91,-1.4,0.98
9600,0.6,-0.24,0.78,0.84,-1.47,0.63
9620,0.6,-0.24,0.78,1.26,-1.82,0.28
9640,0.61,-0.24,0.78,0.98,-1.4,0.14
9660,0.6,-0.24,0.78,1.05,-1.54,0.28
9680,0.6,-0.24,0.78,0.21,-1.61,0.28
9700,0.61,-0.24,0.78,0.28,-1.96,0.42
9720,0.6,-0.24,0.78,0.21,-2.38,0.49
9740,0.61,-0.24,0.78,0.42,-2.87,0.42
9760,0.61,-0.24,0.78,-0.14,-1.82,0.49
9780,0.61,-0.24,0.78,-0.56,-1.75,0.21
9800,0.61,-0.24,0.78,-0.28,-2.1,-0.14
9820,0.61,-0.24,0.78,-0.35,-2.17,-0.28
9840,0.61,-0.24,0.78,-0.28,-1.4,-0.28
9860,0.61,-0.24,0.78,-0.42,-1.19,-0.35
9880,0.61,-0.24,0.78,-0.42,-0.91,-0.56
9900,0.61,-0.24,0.78,-0.98,-1.05,-0.49
9920,0.61,-0.24,0.78,-0.63,-1.4,-0.28
9940,0.61,-0.24,0.78,-0.07,-0.98,-0.42
9960,0.61,-0.24,0.78,-0.56,-1.19,-0.63
9980,0.61,-0.24,0.78,-0.07,-1.26,-0.49
10000,0.61,-0.24,0.78,-0.56,-0.91,-0.7
10020,0.61,-0.24,0.78,-0.49,-0.77,-0.56
10040,0.61,-0.24,0.78,-0.35,-0.77,-0.49
10060,0.61,-0.24,0.78,0.0,-1.26,-0.28
10080,0.62,-0.23,0.78,0.7,0.49,0.56
10100,0.61,-0.24,0.78,0.77,0.07,0.28
10120,0.6,-0.24,0.78,0.98,0.14,0.63
10140,0.61,-0.24,0.78,1.12,-0.28,0.91
10160,0.61,-0.24,0.78,0.77,-0.77,0.63
10180,0.61,-0.24,0.78,0.42,-0.56,0.14
10200,0.61,-0.24,0.78,0.91,-0.84,0.14
10220,0.61,-0.23,0.78,0.77,-0.63,0.63
10240,0.6,-0.24,0.78,0.84,-0.84,0.77
10260,0.61,-0.24,0.78,0.84,-1.19,0.56
10280,0.6,-0.24,0.78,0.35,-1.19,0.7
10300,0.61,-0.24,0.78,0.91,-1.4,0.91
10320,0.6,-0.24,0.78,0.63,-1.19,0.77
10340,0.6,-0.24,0.78,0.42,-1.33,0.63
10360,0.6,-0.24,0.78,0.63,-1.26,0.7
10380,0.6,-0.24,0.78,1.4,-1.12,0.63
10400,0.61,-0.24,0.78,0.91,-1.54,0.56
10420,0.61,-0.24,0.78,1.12,-0.63,0.35
10440,0.6,-0.24,0.78,1.05,-0.63,0.28
10460,0.6,-0.24,0.78,0.98,-1.61,0.56
10480,0.61,-0.24,0.78,0.63,-2.24,0.77
10500,0.61,-0.24,0.78,-0.07,-2.52,0.42
10520,0.61,-0.24,0.78,0.0,-2.59,0.21
10540,0.61,-0.24,0.78,-0.07,-1.96,0.21
10560,0.6,-0.24,0.78,-0.14,-1.89,0.21
10580,0.61,-0.24,0.78,-0.7,-2.24,-0.14
10600,0.6,-0.24,0.78,-0.63,-2.24,-0.28
10620,0.61,-0.24,0.78,-0.56,-2.17,-0.14
10640,0.61,-0.24,0.78,-0.49,-1.82,-0.21
10660,0.61,-0.24,0.78,-0.56,-1.75,-0.21
10680,0.61,-0.24,0.78,-1.12,-1.33,-0.35
10700,0.61,-0.24,0.78,-0.7,-1.19,-0.63
10720,0.61,-0.24,0.78,-0.7,-1.4,-0.49
10740,0.61,-0.24,0.78,-0.63,-0.63,-0.28
10760,0.61,-0.24,0.78,-0.14,-0.98,-0.28
10780,0.61,-0.24,0.78,-0.35,-0.77,-0.35
10800,0.61,-0.24,0.78,-0.21,-1.19,-0.21
10820,0.61,-0.24,0.78,-17.85,-0.63,-0.07
10840,0.6,-0.24,0.78,0.14,-0.7,0.0
10860,0.61,-0.24,0.78,-0.28,-0.98,-0.14
10880,0.6,-0.24,0.78,-0.07,-0.77,0.0
10900,0.61,-0.24,0.78,-0.21,-0.91,0.0
10920,0.61,-0.24,0.78,-0.21,-1.4,0.07
10940,0.61,-0.24,0.78,0.35,-1.33,0.07
10960,0.61,-0.24,0.78,0.42,-1.61,0.42
10980,0.61,-0.24,0.78,0.07,-1.82,0.28
11000,0.61,-0.24,0.78,0.35,-1.61,0.35
11020,0.61,-0.23,0.78,1.19,-0.28,0.63
11040,0.61,-0.24,0.78,0.84,-0.63,0.56
11060,0.61,-0.24,0.78,1.19,-0.42,1.05
11080,0.61,-0.24,0.78,0.63,-0.42,0.91
11100,0.61,-0.24,0.78,0.77,-0.84,0.49
11120,0.6,-0.23,0.78,0.77,-1.12,0.35
11140,0.61,-0.24,0.78,0.98,-1.61,0.14
11160,0.61,-0.24,0.78,0.91,-1.19,0.21
11180,0.61,-0.24,0.77,0.7,-1.05,0.42
11200,0.61,-0.24,0.78,0.84,-0.77,0.7
11220,0.61,-0.24,0.78,0.63,-0.77,0.7
11240,0.61,-0.24,0.78,0.56,-0.91,0.35
11260,0.61,-0.24,0.78,0.63,-0.98,0.35
11280,0.61,-0.24,0.78,0.98,-0.7,0.42
11300,0.6,-0.24,0.78,0.7,-0.7,0.35
11320,0.61,-0.24,0.78,0.56,-0.49,0.28
11340,0.6,-0.24,0.78,0.35,-0.7,0.14
11360,0.6,-0.24,0.78,0.84,0.0,0.21
11380,0.6,-0.23,0.78,0.77,-0.56,0.14
11400,0.61,-0.24,0.78,0.35,-0.63,0.35
11420,0.6,-0.24,0.78,0.98,-0.21,0.35
11440,0.6,-0.24,0.78,0.56,-0.56,0.14
11460,0.6,-0.24,0.78,0.91,-1.61,0.35
11480,0.6,-0.24,0.78,0.35,-2.24,0.56
11500,0.61,-0.24,0.78,0.07,-1.96,0.63
11520,0.6,-0.24,0.78,0.21,-2.1,0.63
11540,0.6,-0.24,0.78,0.14,-2.03,0.7
11560,0.6,-0.24,0.78,0.21,-2.1,0.63
11580,0.6,-0.24,0.78,-0.63,-2.24,0.35
11600,0.6,-0.24,0.78,-0.42,-2.31,0.07
11620,0.61,-0.24,0.78,-0.49,-2.52,0.07
11640,0.61,-0.24,0.78,-0.35,-2.31,0.0
11660,0.61,-0.24,0.78,-0.63,-1.89,-0.14
11680,0.61,-0.24,0.78,-0.49,-1.54,0.0
11700,0.61,-0.24,0.78,-0.42,-1.47,-0.14
11720,0.61,-0.24,0.78,0.0,-1.33,-0.07
11740,0.61,-0.24,0.78,-0.35,-1.12,0.21
11760,0.61,-0.24,0.78,-0.14,-0.77,0.14
11780,0.6,-0.23,0.78,0.14,-1.26,0.14
11800,0.61,-0.24,0.78,-0.42,-1.33,0.0
11820,0.61,-0.24,0.78,0.0,-1.05,-0.14
11840,0.61,-0.24,0.78,0.14,-0.56,-0.21
11860,0.61,-0.24,0.78,-0.07,-0.63,-0.21
11880,0.61,-0.24,0.78,-0.35,-1.12,-0.14
11900,0.61,-0.24,0.78,-0.07,-0.98,-0.14
11920,0.61,-0.24,0.78,-0.28,-1.12,-0.21
11940,0.61,-0.24,0.78,-0.35,-1.47,-0.14
11960,0.61,-0.24,0.78,-0.07,-1.33,0.07
11980,0.61,-0.24,0.78,-0.28,-1.26,-0.07
12000,0.61,-0.24,0.78,-0.07,-0.98,0.0
12020,0.61,-0.24,0.78,0.14,-0.63,0.07
12040,0.61,-0.24,0.78,0.0,-1.12,0.07
12060,0.61,-0.24,0.78,-0.14,-0.98,-0.07
12080,0.61,-0.24,0.78,-0.21,-0.77,0.0
12100,0.61,-0.24,0.78,0.07,-0.98,-0.14
12120,0.61,-0.24,0.78,0.0,-1.19,-0.21
12140,0.61,-0.24,0.78,0.14,-1.26,0.07
12160,0.61,-0.24,0.78,0.14,-1.12,0.14
12180,0.61,-0.24,0.78,0.21,-1.47,0.21
12200,0.61,-0.24,0.78,0.07,-0.91,0.14
12220,0.61,-0.24,0.78,0.35,-0.98,0.21
12240,0.61,-0.24,0.78,0.0,-1.54,0.07
12260,0.61,-0.24,0.78,0.28,-1.68,0.07
12280,0.61,-0.24,0.78,0.84,-1.33,0.28
12300,0.61,-0.23,0.78,0.98,-0.14,0.21
12320,0.61,-0.23,0.78,0.91,1.05,-0.91
12340,0.6,-0.25,0.78,1.05,0.35,-1.75
12360,0.6,-0.24,0.77,0.91,-0.07,-1.26
12380,0.6,-0.24,0.78,1.12,-1.96,-0.56
12400,0.61,-0.24,0.78,0.84,-1.05,-0.35
12420,0.61,-0.24,0.78,1.47,-0.84,0.21
12440,0.6,-0.23,0.78,1.33,-0.28,0.28
12460,0.6,-0.23,0.78,1.05,-0.42,0.21
12480,0.6,-0.23,0.79,0.28,-0.84,0.0
12500,0.6,-0.23,0.78,0.42,-0.91,0.07
12520,0.6,-0.23,0.78,0.35,-1.26,0.07
12540,0.61,-0.23,0.78,0.42,-0.98,0.35
12560,0.61,-0.23,0.78,0.28,-0.91,0.35
12580,0.61,-0.24,0.78,0.56,-0.98,0.28
12600,0.61,-0.23,0.78,0.77,-1.12,0.7
12620,0.61,-0.23,0.78,1.12,-1.47,0.84
12640,0.61,-0.23,0.78,1.26,-1.4,1.05
12660,0.61,-0.24,0.78,0.98,-0.77,0.84
12680,0.61,-0.23,0.78,0.98,-0.91,0.7
12700,0.6,-0.23,0.78,1.19,-0.84,0.42
12720,0.6,-0.23,0.78,1.26,-1.4,0.49
12740,0.6,-0.23,0.78,1.12,-1.12,0.56
12760,0.61,-0.24,0.79,1.12,-0.49,0.35
12780,0.6,-0.24,0.78,0.98,-1.05,0.28
12800,0.6,-0.24,0.78,0.84,-1.33,0.42
12820,0.61,-0.24,0.78,0.7,-1.75,0.56
12840,0.6,-0.24,0.78,0.42,-1.89,0.84
12860,0.61,-0.24,0.78,-0.14,-2.52,0.91
12880,0.6,-0.24,0.78,-0.21,-2.31,0.77
12900,0.6,-0.23,0.78,0.07,-2.31,0.7
12920,0.6,-0.23,0.78,-0.21,-2.59,0.56
12940,0.61,-0.23,0.78,-0.35,-2.52,0.28
12960,0.61,-0.23,0.78,-0.21,-2.17,0.0
12980,0.61,-0.23,0.78,-0.56,-1.33,-0.14
13000,0.6,-0.24,0.78,-0.42,-1.75,-0.07
13020,0.61,-0.24,0.78,-0.21,-2.17,0.07
13040,0.61,-0.24,0.78,-0.28,-2.1,-0.21
13060,0.61,-0.23,0.78,-0.21,-1.05,0.07
13080,0.61,-0.24,0.78,-0.21,-1.68,0.28
13100,0.61,-0.23,0.78,-0.28,-1.19,0.35
13120,0.61,-0.23,0.78,0.0,-1.4,0.21
13140,0.61,-0.24,0.78,-0.07,-1.82,0.21
13160,0.61,-0.23,0.78,0.0,-1.4,0.35
13180,0.61,-0.23,0.78,-0.28,-1.4,0.28
13200,0.61,-0.24,0.78,-0.21,-1.05,0.21
13220,0.6,-0.24,0.78,0.28,-1.82,0.49
13240,0.61,-0.24,0.78,-0.14,-2.73,0.84
13260,0.61,-0.24,0.78,0.07,-3.15,0.98
13280,0.61,-0.24,0.78,-0.63,-3.36,1.12
13300,0.61,-0.24,0.78,-0.84,-2.38,0.77
13320,0.61,-0.24,0.78,-0.42,-1.33,0.84
13340,0.61,-0.24,0.78,-1.26,-0.84,0.56
13360,0.61,-0.23,0.78,-1.96,-0.56,-0.21
13380,0.61,-0.24,0.78,-1.05,0.07,-0.63
13400,0.61,-0.24,0.78,-1.75,0.49,-0.77
13420,0.61,-0.24,0.78,-1.19,0.56,-0.98
13440,0.61,-0.24,0.78,-0.91,-0.21,-0.84
13460,0.61,-0.24,0.78,-0.77,-0.84,-0.56
13480,0.61,-0.24,0.78,0.07,-0.84,-0.21
13500,0.6,-0.24,0.78,0.28,-1.12,0.35
13520,0.61,-0.24,0.78,0.56,-1.26,0.28
13540,0.6,-0.23,0.78,1.26,-0.28,0.77
13560,0.61,-0.23,0.78,0.49,-0.56,0.49
13580,0.6,-0.24,0.78,0.56,-0.49,0.35
13600,0.61,-0.24,0.78,0.42,-0.77,0.14
13620,0.61,-0.23,0.78,0.63,-0.84,0.35
13640,0.61,-0.24,0.78,0.98,-0.84,0.35
13660,0.61,-0.24,0.78,0.84,-0.77,0.49
13680,0.61,-0.24,0.78,0.7,-0.49,0.56
13700,0.61,-0.24,0.78,0.77,-1.05,0.84
13720,0.61,-0.24,0.78,0.84,-0.77,1.19
13740,0.6,-0.24,0.78,1.33,-1.05,0.98
13760,0.6,-0.24,0.78,1.33,-1.26,0.7
13780,0.6,-0.24,0.78,1.19,-1.68,0.77
13800,0.61,-0.24,0.78,0.7,-1.68,0.77
13820,0.61,-0.24,0.78,0.42,-0.84,0.42
13840,0.61,-0.24,0.78,0.7,-0.84,0.21
13860,0.61,-0.24,0.78,0.21,-0.77,0.35
13880,0.61,-0.24,0.78,0.7,-0.84,0.35
13900,0.61,-0.24,0.78,0.63,-1.05,0.14
13920,0.61,-0.24,0.78,0.77,-0.7,0.21
13940,0.6,-0.24,0.78,0.98,-0.77,0.28
13960,0.61,-0.24,0.78,0.84,-0.56,0.21
13980,0.6,-0.24,0.78,1.26,-0.28,0.21
14000,0.6,-0.24,0.78,0.56,-0.35,0.14
14020,0.6,-0.24,0.78,0.56,-1.12,0.21
14040,0.6,-0.24,0.78,-0.21,-1.54,0.28
14060,0.61,-0.24,0.78,0.0,-1.82,0.07
14080,0.6,-0.24,0.78,0.0,-2.17,0.28
14100,0.6,-0.24,0.78,0.0,-2.45,0.42
14120,0.6,-0.24,0.78,-0.56,-2.66,0.21
14140,0.61,-0.24,0.78,-0.98,-2.24,0.21
14160,0.61,-0.24,0.78,-0.35,-1.89,0.14
14180,0.6,-0.24,0.78,-0.7,-1.89,0.14
14200,0.61,-0.24,0.78,-0.63,-1.96,0.0
14220,0.61,-0.24,0.78,-0.63,-1.96,-0.21
14240,0.61,-0.24,0.78,-0.28,-1.82,-0.07
14260,0.61,-0.24,0.78,-0.21,-1.54,0.0
14280,0.61,-0.24,0.78,0.21,-0.91,0.0
14300,0.61,-0.24,0.78,-0.14,-1.26,0.07
14320,0.61,-0.24,0.78,-0.63,-1.19,-0.14
14340,0.61,-0.24,0.78,0.0,-1.12,-0.07
14360,0.61,-0.24,0.78,-0.35,-0.98,0.0
14380,0.6,-0.24,0.78,-0.07,-0.77,-0.28
14400,0.6,-0.24,0.78,-0.49,-0.98,-0.35
14420,0.61,-0.24,0.78,-0.35,-1.19,-0.14
14440,0.61,-0.24,0.78,-0.56,-0.98,-0.21
14460,0.61,-0.24,0.78,-0.21,-0.63,0.07
14480,0.61,-0.24,0.78,0.0,-0.7,0.07
14500,0.61,-0.24,0.78,-0.42,-0.91,0.07
14520,0.6,-0.24,0.78,-0.07,-1.12,0.14
14540,0.61,-0.24,0.78,0.28,-1.26,0.14
14560,0.61,-0.24,0.78,0.14,-1.26,0.07
14580,0.61,-0.24,0.78,-0.21,-1.26,0.07
14600,0.61,-0.24,0.78,0.07,-0.91,0.07
14620,0.61,-0.24,0.78,-0.07,-1.05,0.28
14640,0.6,-0.24,0.78,0.14,-0.98,0.14
14660,0.61,-0.24,0.78,-0.07,-1.26,-0.07
14680,0.61,-0.24,0.78,-0.21,-0.98,-0.07
14700,0.61,-0.24,0.78,-0.14,-0.91,-0.21
14720,0.61,-0.24,0.78,-0.21,-1.33,-0.28
14740,0.61,-0.24,0.78,0.14,-1.26,0.21
14760,0.61,-0.24,0.78,0.63,-1.19,0.21
14780,0.61,-0.24,0.78,0.7,-0.42,0.42
14800,0.61,-0.24,0.78,0.56,-0.49,0.56
14820,0.61,-0.24,0.78,1.05,-0.35,0.56
14840,0.6,-0.24,0.78,0.7,-0.63,0.49
14860,0.6,-0.24,0.79,0.42,-0.63,0.14
14880,0.6,-0.24,0.78,0.84,-1.33,0.14
14900,0.61,-0.24,0.78,0.35,-0.7,-0.14
14920,0.6,-0.24,0.78,0.28,-0.42,0.21
14940,0.6,-0.24,0.78,0.91,-0.49,0.42
14960,0.61,-0.24,0.78,0.77,-0.7,0.35
14980,0.61,-0.24,0.78,1.12,-0.98,0.7
15000,0.61,-0.24,0.78,0.84,-0.77,0.56
15020,0.6,-0.24,0.78,0.77,-0.35,0.49
15040,0.6,-0.24,0.78,0.84,-1.26,0.7
15060,0.61,-0.24,0.78,0.77,-1.33,0.63
15080,0.6,-0.24,0.78,0.56,-0.77,0.49
15100,0.61,-0.24,0.78,0.7,-0.91,0.49
15120,0.6,-0.24,0.78,0.84,-0.56,0.63
15140,0.6,-0.24,0.78,0.63,-0.7,0.35
15160,0.6,-0.24,0.78,0.42,-0.7,0.14
15180,0.6,-0.24,0.78,0.98,-0.56,0.35
15200,0.6,-0.24,0.78,0.7,-0.49,0.28
15220,0.6,-0.24,0.78,0.91,-0.49,0.28
15240,0.6,-0.24,0.78,1.05,-0.63,0.49
15260,0.6,-0.24,0.78,0.77,-0.56,0.35
15280,0.6,-0.24,0.78,0.84,-0.98,0.14
15300,0.6,-0.24,0.78,0.49,-1.33,0.21
15320,0.6,-0.24,0.78,0.28,-1.75,0.42
15340,0.6,-0.24,0.78,-0.07,-2.1,0.49
15360,0.6,-0.24,0.78,0.07,-2.45,0.49
15380,0.6,-0.24,0.78,0.28,-2.24,0.49
15400,0.6,-0.24,0.79,-17.71,-2.17,0.42
15420,0.61,-0.24,0.78,-0.07,-1.26,-0.28
15440,0.6,-0.24,0.78,0.21,-1.19,-0.56
15460,0.6,-0.24,0.78,0.07,-1.68,-0.7
15480,0.61,-0.24,0.79,-0.35,-1.4,-1.33
15500,0.61,-0.24,0.78,-0.21,-0.91,-1.75
15520,0.61,-0.24,0.78,0.21,-1.54,-1.33
15540,0.6,-0.24,0.78,0.0,-1.33,-0.84
15560,0.6,-0.23,0.78,0.42,-1.61,-0.42
15580,0.61,-0.23,0.78,0.35,-1.61,-0.56
15600,0.61,-0.23,0.78,0.07,-1.68,-0.7
15620,0.6,-0.23,0.79,0.14,-1.68,-0.49
15640,0.6,-0.24,0.79,-0.07,-1.54,-0.28
15660,0.6,-0.23,0.78,-0.14,-1.54,-0.28
15680,0.6,-0.23,0.78,-0.21,-2.17,-0.21
15700,0.61,-0.23,0.79,-0.14,-2.1,0.07
15720,0.61,-0.23,0.79,-0.28,-1.47,0.28
15740,0.61,-0.23,0.78,-0.35,-0.91,-0.07
15760,0.61,-0.24,0.78,-0.49,-0.21,-0.7
15780,0.61,-0.24,0.78,-0.7,-0.14,-0.84
15800,0.61,-0.24,0.78,-0.63,0.0,-0.84
15820,0.6,-0.24,0.78,0.07,-0.56,-0.28
15840,0.61,-0.24,0.78,0.14,-0.98,-0.28
15860,0.6,-0.24,0.78,0.84,-0.77,0.14
15880,0.6,-0.24,0.78,0.49,-0.77,0.28
15900,0.6,-0.23,0.78,0.56,-0.7,0.14
15920,0.6,-0.23,0.78,0.14,-0.98,0.0
15940,0.61,-0.23,0.79,-0.07,-0.35,-0.28
15960,0.6,-0.24,0.78,-0.49,0.0,-0.49
15980,0.6,-0.24,0.78,-0.7,-0.14,-0.56
16000,0.6,-0.24,0.78,-0.49,-0.63,-0.28
16020,0.61,-0.24,0.78,-0.35,-0.91,0.14
16040,0.6,-0.24,0.78,0.14,-0.98,0.49
16060,0.61,-0.24,0.78,-0.14,-0.91,0.42
16080,0.6,-0.23,0.78,1.19,-0.91,0.42
16100,0.6,-0.23,0.78,0.42,-1.47,0.49
16120,0.6,-0.24,0.78,0.28,-1.68,0.63
16140,0.6,-0.23,0.78,0.49,-2.24,0.63
16160,0.61,-0.23,0.79,0.56,-1.82,0.56
16180,0.61,-0.23,0.78,0.98,-1.05,1.05
16200,0.61,-0.24,0.78,0.49,-0.63,0.7
16220,0.6,-0.23,0.78,1.05,-0.7,0.84
16240,0.6,-0.23,0.79,0.63,-1.05,0.56
16260,0.6,-0.23,0.78,0.84,-1.12,0.35
16280,0.6,-0.24,0.79,0.7,-1.4,0.63
16300,0.6,-0.24,0.78,0.7,-1.33,0.49
16320,0.6,-0.23,0.78,0.84,-1.05,0.28
16340,0.61,-0.23,0.78,0.91,-1.19,0.63
16360,0.6,-0.24,0.79,0.84,-1.12,0.91
16380,0.6,-0.24,0.79,0.77,-0.91,0.7
16400,0.6,-0.23,0.79,0.91,-0.98,0.56
16420,0.6,-0.23,0.79,0.77,-1.26,0.84
16440,0.61,-0.23,0.79,0.98,-0.98,0.7
16460,0.6,-0.23,0.79,0.77,-0.98,0.56
16480,0.61,-0.23,0.78,0.84,-0.14,0.56
16500,0.6,-0.23,0.79,0.63,-0.7,0.28
16520,0.6,-0.23,0.78,0.35,-0.42,0.21
16540,0.6,-0.24,0.79,0.63,-0.56,0.49
16560,0.6,-0.23,0.78,0.63,-0.35,0.21
16580,0.6,-0.23,0.78,0.63,-0.49,0.21
16600,0.6,-0.23,0.78,0.56,-0.35,0.35
16620,0.6,-0.23,0.79,0.56,-0.07,0.35
16640,0.6,-0.23,0.79,1.05,0.21,0.14
16660,0.6,-0.23,0.79,0.98,-0.63,0.14
16680,0.6,-0.23,0.79,0.98,-1.05,0.28
16700,0.6,-0.23,0.79,0.91,-0.63,0.14
16720,0.6,-0.23,0.79,0.7,-0.98,0.14
16740,0.6,-0.23,0.79,0.42,-1.26,0.42
16760,0.6,-0.24,0.79,0.35,-2.1,0.63
16780,0.6,-0.24,0.79,-0.21,-2.38,0.63
16800,0.6,-0.24,0.79,0.42,-2.38,0.84
16820,0.6,-0.24,0.79,0.28,-2.38,0.7
16840,0.6,-0.24,0.79,0.28,-2.24,0.7
16860,0.6,-0.23,0.79,-0.14,-2.52,0.56
16880,0.6,-0.23,0.79,-0.42,-2.52,0.42
16900,0.6,-0.23,0.79,-0.07,-2.52,0.35
16920,0.61,-0.23,0.79,-0.21,-2.52,0.28
16940,0.6,-0.23,0.79,-0.7,-1.96,0.21
16960,0.61,-0.24,0.78,-0.35,-1.54,0.35
16980,0.6,-0.23,0.78,0.28,-1.82,0.21
17000,0.61,-0.23,0.78,-0.28,-2.1,0.28
17020,0.61,-0.23,0.78,0.07,-1.4,0.21
17040,0.6,-0.23,0.78,-0.07,-1.33,0.21
17060,0.6,-0.23,0.78,-0.63,-1.19,0.28
17080,0.6,-0.23,0.79,-0.14,-1.12,0.07
17100,0.6,-0.23,0.79,-0.77,-0.98,-0.21
17120,0.6,-0.23,0.78,-0.35,-1.19,-0.21
17140,0.6,-0.24,0.78,-0.42,-1.19,-0.35
17160,0.6,-0.24,0.79,-0.35,-0.77,-0.42
17180,0.6,-0.24,0.79,-0.28,-0.7,-0.21
17200,0.6,-0.24,0.78,-0.35,-0.63,-0.28
17220,0.61,-0.24,0.79,-0.56,-0.7,-0.35
17240,0.6,-0.23,0.78,0.07,-1.12,-0.14
17260,0.6,-0.24,0.79,-0.35,-0.7,0.07
17280,0.6,-0.24,0.79,-0.07,-0.42,0.0
17300,0.6,-0.23,0.78,0.0,-0.63,-0.21
17320,0.6,-0.23,0.79,0.0,-1.19,0.0
17340,0.6,-0.24,0.79,0.07,-0.91,0.0
17360,0.6,-0.24,0.78,0.0,-0.91,-0.07
17380,0.6,-0.24,0.79,0.28,-1.33,-0.07
17400,0.6,-0.24,0.79,-0.07,-1.4,0.0
17420,0.6,-0.23,0.79,0.63,-0.28,0.14
17440,0.61,-0.23,0.78,0.56,-0.35,0.42
17460,0.6,-0.23,0.78,0.28,-0.35,0.35
17480,0.6,-0.24,0.79,0.84,-0.42,0.49
17500,0.6,-0.23,0.79,0.84,-0.42,0.7
17520,0.6,-0.23,0.79,0.84,-0.42,0.42
17540,0.6,-0.23,0.78,1.05,-0.56,0.21
17560,0.6,-0.23,0.79,0.63,-0.84,0.14
17580,0.6,-0.24,0.79,0.98,-1.33,0.42
17600,0.6,-0.24,0.79,0.98,-0.63,0.56
17620,0.6,-0.24,0.79,0.91,-0.35,0.42
17640,0.6,-0.24,0.79,0.56,-1.19,0.42
17660,0.6,-0.24,0.79,0.7,-1.05,0.63
17680,0.6,-0.23,0.79,0.7,-0.63,0.63
17700,0.6,-0.23,0.79,0.63,-1.05,0.63
17720,0.6,-0.24,0.79,0.63,-1.05,0.49
17740,0.6,-0.23,0.79,0.77,-0.56,0.77
17760,0.6,-0.23,0.79,0.63,-0.7,0.56
17780,0.6,-0.23,0.79,0.49,-0.98,0.35
17800,0.6,-0.23,0.79,0.63,-1.05,0.35
17820,0.6,-0.24,0.79,0.7,-0.56,0.49
17840,0.6,-0.23,0.79,0.7,-0.56,0.35
17860,0.6,-0.24,0.79,0.77,-0.56,0.28
17880,0.6,-0.23,0.79,1.19,-0.7,0.21
17900,0.6,-0.23,0.79,1.05,-1.33,0.35
17920,0.6,-0.24,0.79,0.91,-0.56,0.42
17940,0.6,-0.24,0.79,0.98,-0.91,0.35
17960,0.6,-0.23,0.79,0.91,-1.68,0.42
17980,0.6,-0.24,0.79,0.35,-2.59,0.63
18000,0.6,-0.24,0.79,-0.07,-2.45,0.49
18020,0.6,-0.24,0.79,0.56,-2.24,0.84
18040,0.6,-0.23,0.79,-0.07,-2.17,0.56
18060,0.6,-0.23,0.79,-0.07,-2.1,0.56
18080,0.6,-0.23,0.79,-0.07,-2.24,0.49
18100,0.6,-0.23,0.79,-0.49,-2.1,0.21
18120,0.6,-0.23,0.79,-0.7,-2.17,0.0
18140,0.6,-0.23,0.79,17.78,-2.38,0.14
18160,0.6,-0.23,0.79,-0.42,-2.24,0.07
18180,0.6,-0.23,0.79,-0.56,-1.61,0.21
18200,0.61,-0.23,0.78,-0.21,-1.75,0.28
18220,0.61,-0.23,0.78,-0.42,-1.89,0.14
18240,0.61,-0.23,0.79,-0.14,-1.68,0.21
18260,0.6,-0.24,0.79,-0.42,-1.26,0.14
18280,0.6,-0.23,0.79,0.07,-1.12,-0.07
18300,0.6,-0.23,0.79,-0.28,-1.82,-0.14
18320,0.6,-0.24,0.79,-0.14,-1.47,-0.07
18340,0.6,-0.24,0.78,-0.35,-1.12,-0.21
18360,0.6,-0.23,0.78,-0.56,-0.98,-0.07
18380,0.6,-0.23,0.78,-0.35,-0.7,0.0
18400,0.6,-0.24,0.79,-0.42,-0.84,-0.07
18420,0.6,-0.24,0.79,-0.42,-0.98,-0.14
18440,0.61,-0.23,0.78,0.07,-1.19,-0.07
18460,0.6,-0.23,0.79,-0.28,-0.98,-0.21
18480,0.61,-0.24,0.79,0.0,-1.26,-0.14
18500,0.6,-0.24,0.79,-0.14,-0.98,0.0
18520,0.6,-0.24,0.78,-0.49,-0.56,-17.92
18540,0.6,-0.23,0.78,-0.7,-0.7,-0.14
18560,0.6,-0.23,0.79,-0.35,-0.84,-0.14
18580,0.6,-0.24,0.79,-0.63,-0.49,0.07
18600,0.6,-0.24,0.79,-0.28,-0.28,-0.07
18620,0.6,-0.23,0.79,-0.35,-0.7,-0.35
18640,0.6,-0.24,0.79,0.0,-0.98,0.07
18660,0.6,-0.24,0.79,-0.07,-0.91,0.0
18680,0.6,-0.24,0.78,0.21,-0.84,0.14
18700,0.6,-0.24,0.79,0.07,-1.19,0.07
18720,0.6,-0.24,0.79,0.0,-1.19,0.28
18740,0.6,-0.24,0.79,0.07,-1.33,0.21
18760,0.6,-0.24,0.79,0.07,-1.54,0.0
18780,0.6,-0.24,0.78,0.21,-1.75,0.14
18800,0.6,-0.23,0.79,0.14,-1.47,0.14
18820,0.61,-0.24,0.79,0.35,-1.05,0.14
18840,0.6,-0.24,0.79,0.49,-1.19,0.35
18860,0.6,-0.23,0.79,0.56,-0.91,0.49
18880,0.6,-0.23,0.78,0.77,-0.56,0.7
18900,0.6,-0.24,0.79,0.7,-0.56,0.42
18920,0.6,-0.24,0.79,0.77,-0.63,0.77
18940,0.6,-0.23,0.79,0.56,-0.49,0.49
18960,0.6,-0.23,0.79,0.7,-0.98,0.42
18980,0.6,-0.24,0.79,0.63,-1.12,0.49
19000,0.6,-0.24,0.79,1.19,-0.77,0.35
19020,0.6,-0.23,0.79,0.84,-1.12,0.63
19040,0.6,-0.23,0.79,0.77,-0.98,0.77
19060,0.6,-0.24,0.79,0.84,-0.91,0.77
19080,0.6,-0.23,0.79,0.98,-0.77,0.63
19100,0.6,-0.23,0.79,0.77,-0.98,0.63
19120,0.6,-0.23,0.78,0.77,-1.12,0.56
19140,0.6,-0.23,0.79,1.05,-1.19,0.7
19160,0.6,-0.23,0.79,0.77,-0.91,0.49
19180,0.6,-0.23,0.79,0.84,-0.91,0.49
19200,0.6,-0.24,0.78,0.49,-0.77,0.35
19220,0.6,-0.23,0.79,0.42,-0.84,0.49
19240,0.6,-0.23,0.79,0.42,-1.12,0.56
19260,0.6,-0.24,0.79,0.21,-0.63,0.42
19280,0.6,-0.23,0.79,0.7,-0.77,0.35
19300,0.6,-0.23,0.79,0.56,-1.19,0.56
19320,0.6,-0.23,0.79,0.7,-0.7,0.35
19340,0.6,-0.23,0.79,1.12,-0.49,0.21
19360,0.6,-0.23,0.79,0.91,-0.91,0.35
19380,0.6,-0.23,0.79,0.63,-1.05,0.28
19400,0.59,-0.24,0.79,0.77,-1.4,0.35
19420,0.6,-0.24,0.79,0.42,-1.96,0.35
19440,0.6,-0.24,0.79,0.07,-2.45,0.42
19460,0.6,-0.24,0.79,0.0,-2.87,0.56
19480,0.6,-0.24,0.79,0.14,-2.38,0.7
19500,0.6,-0.24,0.79,0.35,-2.24,0.7
19520,0.6,-0.23,0.79,-0.21,-1.89,0.63
19540,0.6,-0.24,0.79,0.07,-2.1,0.56
19560,0.6,-0.23,0.79,-0.28,-2.59,0.49
19580,0.6,-0.24,0.79,-0.35,-2.17,0.42
19600,0.6,-0.24,0.79,-0.28,-2.1,0.42
19620,0.6,-0.23,0.79,-0.56,-2.03,0.07
19640,0.6,-0.23,0.79,-0.49,-2.17,0.21
19660,0.61,-0.24,0.79,-0.21,-2.03,0.14
19680,0.6,-0.24,0.79,0.0,-1.61,0.07
19700,0.6,-0.23,0.79,-0.42,-1.47,0.07
19720,0.6,-0.24,0.78,0.07,-1.12,0.14
19740,0.6,-0.23,0.79,-0.35,-0.77,-0.07
19760,0.6,-0.23,0.79,0.0,-1.19,-0.28
19780,0.6,-0.24,0.79,-0.42,-1.4,-0.28
19800,0.6,-0.24,0.79,-0.56,-0.98,-0.42
19820,0.6,-0.24,0.79,-0.07,-1.12,-0.28
19840,0.6,-0.24,0.79,-0.35,-0.84,-0.28
19860,0.6,-0.24,0.78,-0.21,-0.77,-0.07
19880,0.6,-0.23,0.79,-0.21,-0.7,-0.28
19900,0.6,-0.24,0.79,-0.07,-1.12,-0.35
19920,0.6,-0.24,0.79,-0.49,-0.98,0.07
19940,0.6,-0.24,0.78,-0.28,-0.98,-0.14
19960,0.6,-0.23,0.78,-0.28,-1.05,-0.21
19980,0.6,-0.24,0.79,-17.71,-0.84,-0.14
20000,0.6,-0.24,0.78,0.07,-0.63,0.0
20020,0.6,-0.24,0.79,-0.28,-0.28,-0.14
20040,0.6,-0.24,0.79,-0.14,-0.7,0.07
20060,0.6,-0.23,0.78,-0.28,-0.7,0.21
20080,0.61,-0.24,0.79,0.49,-0.28,0.42
20100,0.6,-0.24,0.79,0.28,-0.91,0.14
20120,0.6,-0.23,0.78,-0.21,-0.91,0.07
20140,0.6,-0.24,0.79,0.14,-1.26,0.14
20160,0.6,-0.24,0.79,0.49,-0.42,0.07
20180,0.6,-0.24,0.79,0.14,-0.42,0.14
20200,0.6,-0.24,0.79,-0.07,-0.91,0.0
20220,0.6,-0.23,0.79,0.07,-1.26,0.0
20240,0.6,-0.24,0.79,0.28,-1.33,0.21
20260,0.6,-0.24,0.79,-0.35,-1.05,0.28
20280,0.6,-0.24,0.79,-0.28,-1.12,0.07
20300,0.6,-0.24,0.78,0.49,-2.03,0.14
20320,0.6,-0.23,0.79,0.35,-2.03,0.49
20340,0.61,-0.24,0.79,0.84,-0.98,0.42
20360,0.6,-0.24,0.78,0.42,-0.56,0.56
20380,0.6,-0.24,0.79,0.56,-0.28,0.49
20400,0.6,-0.24,0.79,0.63,-0.42,0.77
20420,0.6,-0.24,0.79,0.21,-0.84,0.49
20440,0.6,-0.23,0.79,0.56,-0.98,0.07
20460,0.6,-0.24,0.79,0.7,-0.98,0.07
20480,0.6,-0.24,0.79,0.7,-0.98,0.28
20500,0.6,-0.24,0.79,0.84,-1.05,0.42
20520,0.6,-0.24,0.79,0.49,-0.91,0.56
20540,0.6,-0.24,0.79,0.63,-0.56,0.42
20560,0.6,-0.24,0.79,0.84,-0.84,0.56
20580,0.6,-0.23,0.79,1.05,-1.54,0.49
20600,0.6,-0.24,0.79,0.28,-0.98,0.49
20620,0.6,-0.24,0.79,0.91,-0.7,0.49
20640,0.6,-0.23,0.79,0.77,-1.05,0.42
20660,0.6,-0.24,0.79,0.77,-1.05,0.56
20680,0.6,-0.23,0.79,0.49,-0.35,0.35
20700,0.6,-0.23,0.79,0.49,-0.42,0.42
20720,0.6,-0.24,0.79,0.42,-0.84,0.42
20740,0.6,-0.24,0.79,0.35,-0.42,0.35
20760,0.6,-0.23,0.79,0.7,-0.28,0.21
20780,0.6,-0.24,0.79,0.7,-0.63,-0.28
20800,0.6,-0.24,0.79,0.91,-1.54,0.07
20820,0.6,-0.24,0.79,1.05,-1.4,0.7
20840,0.6,-0.23,0.79,0.98,-0.77,0.7
20860,0.6,-0.23,0.79,0.91,-0.49,0.63
20880,0.59,-0.23,0.79,1.47,-0.28,0.77
20900,0.6,-0.23,0.79,0.98,-1.19,0.28
20920,0.6,-0.24,0.79,0.77,-0.98,0.14
20940,0.59,-0.24,0.79,0.21,-1.19,0.35
20960,0.6,-0.24,0.79,0.0,-1.89,0.49
20980,0.6,-0.24,0.79,0.14,-2.52,0.42
21000,0.6,-0.24,0.79,0.21,-2.31,0.56
21020,0.6,-0.24,0.79,0.63,-2.1,0.84
21040,0.6,-0.23,0.79,0.07,-2.52,0.7
21060,0.6,-0.23,0.79,0.21,-2.1,0.49
21080,0.6,-0.24,0.79,0.07,-2.03,0.35
21100,0.6,-0.24,0.79,-0.63,-1.96,0.07
21120,0.6,-0.23,0.79,-0.77,-2.1,0.0
21140,0.6,-0.23,0.79,0.07,-2.17,-0.07
21160,0.6,-0.24,0.79,-0.07,-1.89,0.0
21180,0.6,-0.23,0.79,-0.28,-1.33,0.07
21200,0.6,-0.23,0.79,-0.21,-1.4,-0.07
21220,0.6,-0.23,0.79,-0.21,-1.61,0.0
21240,0.6,-0.23,0.79,-0.07,-1.61,0.07
21260,0.6,-0.23,0.79,-0.07,-1.4,0.14
21280,0.6,-0.24,0.79,-0.21,-1.05,-0.07
21300,0.6,-0.23,0.79,-0.14,-0.98,-0.28
21320,0.6,-0.23,0.79,-0.35,-1.47,-0.35
21340,0.6,-0.24,0.79,-0.28,-1.26,-0.56
21360,0.6,-0.24,0.79,-0.28,-0.77,-0.42
21380,0.6,-0.24,0.79,-0.35,-0.63,-0.42
21400,0.6,-0.24,0.79,-0.42,-0.98,-0.14
21420,0.6,-0.24,0.79,-0.14,-0.77,-0.14
21440,0.6,-0.24,0.79,-0.14,-0.98,-0.35
21460,0.6,-0.23,0.79,-0.77,-1.05,-0.28
21480,0.6,-0.24,0.79,-0.49,-1.54,-0.14
21500,0.6,-0.24,0.79,-0.28,-1.12,0.0
21520,0.6,-0.23,0.79,-0.42,-0.98,0.0
21540,0.6,-0.24,0.79,-0.28,-0.63,-0.07
21560,0.6,-0.24,0.79,-0.28,-0.91,-0.07
21580,0.6,-0.24,0.79,-0.28,-0.84,-0.28
21600,0.6,-0.24,0.79,-0.21,-0.84,0.28
21620,0.6,-0.24,0.79,0.0,-1.26,0.21
21640,0.6,-0.24,0.79,-0.28,-2.1,0.28
21660,0.6,-0.24,0.79,0.56,-2.66,0.14
21680,0.6,-0.24,0.79,0.21,-2.8,0.21
21700,0.61,-0.23,0.79,-0.7,-1.89,0.07
21720,0.6,-0.23,0.79,-0.35,-1.26,0.0
21740,0.6,-0.24,0.79,0.07,-1.26,0.49
21760,0.6,-0.24,0.79,1.05,-0.56,0.91
21780,0.6,-0.24,0.79,1.19,-0.84,0.84
21800,0.6,-0.23,0.79,0.84,-1.4,0.98
21820,0.6,-0.23,0.79,-0.14,-1.4,0.63
21840,0.6,-0.23,0.79,-0.14,-0.14,0.56
21860,0.6,-0.24,0.79,0.21,0.07,0.49
21880,0.6,-0.24,0.79,0.28,-0.21,0.35
21900,0.6,-0.24,0.79,0.35,-0.21,0.35
21920,0.6,-0.24,0.79,0.56,-0.35,0.63
21940,0.6,-0.24,0.79,0.28,-0.56,1.12
21960,0.6,-0.24,0.79,0.35,-0.07,0.77
21980,0.6,-0.24,0.79,0.14,-0.56,0.84
22000,0.6,-0.24,0.79,0.07,-0.63,0.7
22020,0.6,-0.24,0.79,0.56,-0.56,0.77
22040,0.6,-0.23,0.79,0.7,-0.28,0.35
22060,0.6,-0.24,0.79,0.42,0.0,-0.07
22080,0.6,-0.24,0.79,0.42,-0.14,-0.28
22100,0.6,-0.24,0.79,0.49,0.84,-0.28
22120,0.6,-0.24,0.79,0.56,0.07,-0.49
22140,0.59,-0.24,0.79,0.98,0.28,-0.21
22160,0.6,-0.24,0.79,1.54,-0.35,-0.14
22180,0.59,-0.24,0.79,1.89,-0.21,-0.21
22200,0.59,-0.24,0.79,1.82,-0.63,-0.07
22220,0.59,-0.24,0.79,1.19,-0.7,-0.21
22240,0.59,-0.23,0.79,0.77,-1.26,-0.21
22260,0.6,-0.24,0.79,0.07,-1.61,-0.14
22280,0.6,-0.24,0.79,-0.21,-1.4,0.0
22300,0.6,-0.24,0.79,-0.21,-1.4,0.0
22320,0.59,-0.23,0.79,-0.14,-2.03,-0.07
22340,0.59,-0.24,0.79,-0.14,-2.1,-0.07
22360,0.6,-0.24,0.8,-0.35,-2.1,-0.14
22380,0.59,-0.23,0.79,-0.35,-1.96,-0.28
22400,0.6,-0.23,0.79,-0.49,-1.33,-0.21
22420,0.6,-0.23,0.79,-0.14,-1.19,-0.21
22440,0.6,-0.23,0.79,-0.77,-1.26,-0.35
22460,0.6,-0.23,0.79,-0.35,-1.47,-0.49
22480,0.6,-0.23,0.79,-0.49,-1.26,-0.28
22500,0.6,-0.24,0.8,-0.14,-0.98,-0.21
22520,0.59,-0.24,0.79,-0.35,-1.4,-0.28
22540,0.6,-0.24,0.79,-0.14,-0.91,0.0
22560,0.6,-0.24,0.79,-0.28,-1.12,-0.21
22580,0.6,-0.23,0.8,-0.28,-1.05,-0.35
22600,0.6,-0.24,0.79,-0.35,-0.98,0.07
22620,0.6,-0.24,0.79,-0.07,-0.91,-0.07
22640,0.6,-0.23,0.79,-0.21,-0.91,-0.28
22660,0.59,-0.24,0.79,-0.21,-1.19,-0.07
22680,0.6,-0.24,0.79,0.28,-0.35,-0.21
22700,0.6,-0.23,0.8,0.56,0.63,-0.35
22720,0.61,-0.23,0.79,-0.42,1.82,-2.52
22740,0.59,-0.25,0.78,0.14,-0.56,-2.38
22760,0.59,-0.24,0.79,0.07,-2.17,-1.05
22780,0.59,-0.24,0.79,0.56,-2.45,0.42
22800,0.59,-0.23,0.79,0.14,-3.15,0.98
22820,0.6,-0.23,0.8,0.91,-1.4,0.77
22840,0.6,-0.23,0.79,-0.42,0.35,-0.35
22860,0.59,-0.23,0.79,-0.98,0.28,-1.26
22880,0.6,-0.23,0.79,-1.33,-0.49,-1.19
22900,0.59,-0.23,0.79,-1.4,-0.7,-1.05
22920,0.6,-0.23,0.79,-1.12,-0.49,-0.77
22940,0.6,-0.24,0.79,-0.7,-0.49,-0.7
22960,0.59,-0.24,0.79,-0.42,-0.35,-0.28
22980,0.6,-0.23,0.79,-0.28,-0.63,-0.07
23000,0.6,-0.24,0.79,-0.28,-0.63,0.28
23020,0.6,-0.23,0.8,-0.35,-0.49,0.21
23040,0.59,-0.23,0.8,0.35,-0.28,0.42
23060,0.6,-0.24,0.79,0.28,-0.21,0.77
23080,0.59,-0.23,0.79,0.77,-0.07,0.98
23100,0.59,-0.24,0.8,0.7,-0.63,0.7
23120,0.59,-0.23,0.8,0.56,-0.91,0.63
23140,0.59,-0.23,0.8,0.98,-1.4,0.49
23160,0.59,-0.24,0.8,0.91,-1.33,0.7
23180,0.59,-0.24,0.8,1.33,-1.54,1.12
23200,0.59,-0.24,0.79,0.91,-1.54,0.98
23220,0.59,-0.24,0.79,0.91,-1.54,1.12
23240,0.59,-0.24,0.8,1.19,-1.54,1.4
23260,0.6,-0.24,0.79,0.91,-1.54,1.47
23280,0.59,-0.24,0.79,0.84,-1.61,1.12
23300,0.59,-0.23,0.79,1.12,-1.75,0.98
23320,0.59,-0.24,0.8,1.4,-1.47,1.05
23340,0.59,-0.24,0.79,0.91,-1.33,0.84
23360,0.59,-0.23,0.79,0.56,-1.05,0.84
23380,0.59,-0.23,0.79,0.28,-0.84,0.77
23400,0.6,-0.23,0.8,0.7,-0.35,0.56
23420,0.59,-0.24,0.79,0.7,-0.56,0.63
23440,0.59,-0.23,0.8,0.49,-0.7,0.49
23460,0.59,-0.23,0.79,0.91,-0.91,0.28
23480,0.59,-0.23,0.8,0.7,-0.91,0.14
23500,0.59,-0.23,0.8,1.33,-0.77,0.21
23520,0.59,-0.24,0.79,0.91,-0.63,0.07
23540,0.59,-0.24,0.79,0.91,-0.49,0.0
23560,0.59,-0.24,0.8,0.7,-1.33,0.0
23580,0.59,-0.24,0.8,0.7,-1.4,0.42
23600,0.59,-0.24,0.79,0.07,-1.89,0.56
23620,0.59,-0.24,0.8,0.14,-2.31,0.35
23640,0.59,-0.24,0.79,-0.07,-2.52,0.56
23660,0.59,-0.24,0.79,-0.56,-2.59,0.42
23680,0.59,-0.23,0.8,-0.42,-2.59,0.42
23700,0.59,-0.23,0.79,-0.63,-2.31,0.14
23720,0.59,-0.23,0.79,-0.56,-2.1,0.21
23740,0.59,-0.23,0.8,-0.63,-1.96,0.14
23760,0.59,-0.24,0.79,-0.49,-1.82,-0.21
23780,0.6,-0.23,0.79,-0.56,-1.96,-0.07
23800,0.6,-0.24,0.79,-0.07,-1.54,-0.14
23820,0.6,-0.24,0.79,0.07,-1.61,-0.07
23840,0.59,-0.24,0.79,0.0,-1.4,0.14
23860,0.59,-0.24,0.79,-0.14,-1.33,-0.07
23880,0.6,-0.23,0.79,-0.35,-1.47,-0.07
23900,0.6,-0.24,0.79,-0.35,-0.98,0.21
23920,0.59,-0.24,0.79,-0.28,-0.77,0.07
23940,0.59,-0.23,0.79,-0.21,-0.91,-0.14
23960,0.6,-0.23,0.79,-0.07,-1.4,-0.07
23980,0.6,-0.24,0.79,0.0,-0.91,-0.14
24000,0.59,-0.24,0.79,-0.28,-0.63,-0.14
24020,0.59,-0.24,0.79,-0.7,-0.7,0.0
24040,0.6,-0.24,0.79,0.21,-0.77,0.21
24060,0.59,-0.24,0.79,-0.28,-0.77,0.14
24080,0.59,-0.24,0.79,0.0,-0.98,0.21
24100,0.59,-0.23,0.79,0.0,-1.05,0.21
24120,0.59,-0.24,0.8,0.07,-0.91,0.0
24140,0.59,-0.24,0.79,0.07,-0.98,0.21
24160,0.59,-0.24,0.79,-0.21,-0.91,0.07
24180,0.59,-0.24,0.79,-0.56,-0.91,0.07
24200,0.59,-0.24,0.79,-0.77,-0.77,0.07
24220,0.59,-0.24,0.79,-0.63,-0.84,0.0
24240,0.59,-0.24,0.79,-0.56,-1.4,0.42
24260,0.59,-0.24,0.79,0.07,-1.68,0.63
24280,0.59,-0.23,0.79,0.14,-1.96,0.7
24300,0.6,-0.24,0.79,0.21,-1.75,0.49
24320,0.6,-0.24,0.79,0.0,-1.82,0.35
24340,0.6,-0.24,0.79,0.42,-1.4,0.42
24360,0.59,-0.24,0.79,0.28,-1.96,0.56
24380,0.6,-0.24,0.79,-0.14,-1.61,0.42
24400,0.6,-0.24,0.79,0.7,-1.33,0.91
24420,0.6,-0.24,0.79,-0.14,-1.12,0.84
24440,0.6,-0.23,0.79,-0.14,-0.28,0.77
24460,0.59,-0.24,0.8,0.21,-0.49,1.05
24480,0.6,-0.23,0.79,0.14,0.14,0.77
24500,0.59,-0.24,0.79,0.14,-0.28,0.7
24520,0.59,-0.24,0.79,0.0,-0.56,0.42
24540,0.59,-0.24,0.79,-0.21,-0.63,0.56
24560,0.59,-0.24,0.79,-0.28,-0.56,0.63
24580,0.59,-0.25,0.79,0.07,0.0,0.42
24600,0.59,-0.24,0.79,-0.07,-0.21,0.28
24620,0.59,-0.24,0.79,-0.35,-0.56,0.42
24640,0.59,-0.24,0.79,0.42,-0.77,0.63
24660,0.59,-0.24,0.79,0.98,-0.42,0.56
24680,0.59,-0.24,0.79,0.42,-0.7,0.56
24700,0.59,-0.24,0.79,0.77,-0.7,0.7
24720,0.59,-0.24,0.8,0.56,-0.21,0.56
24740,0.59,-0.24,0.8,0.49,0.07,0.35
24760,0.59,-0.24,0.79,0.0,-0.7,0.35
24780,0.59,-0.24,0.8,0.07,-0.28,0.42
24800,0.59,-0.24,0.8,0.35,-0.42,0.42
24820,0.59,-0.24,0.79,0.56,-0.21,0.56
24840,0.59,-0.24,0.8,0.63,17.78,0.42
24860,0.58,-0.24,0.79,0.28,-0.21,0.35
24880,0.59,-0.24,0.8,0.84,-0.56,0.49
24900,0.59,-0.24,0.8,0.84,-0.56,0.49
24920,0.59,-0.24,0.8,1.4,-0.14,0.35
24940,0.58,-0.24,0.79,1.12,-0.84,0.28
24960,0.59,-0.24,0.8,0.56,-1.4,0.42
24980,0.59,-0.24,0.8,0.21,-1.54,0.28
25000,0.59,-0.24,0.79,-0.21,-1.68,0.28
25020,0.59,-0.24,0.79,-0.14,-1.82,0.35
25040,0.58,-0.24,0.79,0.14,-1.61,0.56
25060,0.58,-0.24,0.79,-0.07,-2.31,0.42
25080,0.59,-0.24,0.8,-0.56,-3.08,0.14
25100,0.59,-0.24,0.8,-0.28,-2.24,0.07
25120,0.59,-0.24,0.8,-0.35,-1.89,17.85
25140,0.59,-0.24,0.8,-0.42,-1.47,-0.21
25160,0.59,-0.24,0.8,-0.42,-1.12,-0.63
25180,0.59,-0.24,0.79,-0.21,-0.98,-1.26
25200,0.59,-0.24,0.79,0.07,-1.33,-1.05
25220,0.59,-0.24,0.8,0.0,-0.91,-1.05
25240,0.59,-0.24,0.79,0.84,-1.12,-0.77
25260,0.59,-0.24,0.79,0.98,-1.68,-0.7
25280,0.59,-0.24,0.8,0.77,-2.17,-0.49
25300,0.59,-0.24,0.8,0.91,-2.03,-0.28
25320,0.59,-0.24,0.79,0.56,-1.82,-0.28
25340,0.59,-0.24,0.8,0.42,-1.61,-0.28
25360,0.59,-0.24,0.8,0.28,-1.26,-0.21
25380,0.59,-0.23,0.79,0.56,-1.47,-0.35
25400,0.59,-0.24,0.79,-0.21,-1.33,-0.56
25420,0.6,-0.24,0.79,0.14,-1.19,-0.7
25440,0.59,-0.24,0.79,-0.14,-1.47,-0.35
25460,0.59,-0.24,0.8,-0.21,-1.47,-0.21
25480,0.59,-0.24,0.8,-0.7,-0.91,17.85
25500,0.59,-0.24,0.79,-0.84,-0.7,-0.14
25520,0.59,-0.23,0.79,-0.84,-0.56,-0.14
25540,0.59,-0.24,0.8,-0.91,-0.49,-0.07
25560,0.59,-0.24,0.8,-0.91,-0.35,0.21
25580,0.59,-0.24,0.79,-0.49,-0.28,0.0
25600,0.59,-0.24,0.79,-0.28,-0.77,-0.21
25620,0.59,-0.24,0.79,-0.14,-1.33,0.28
25640,0.59,-0.24,0.8,0.14,-1.26,0.49
25660,0.59,-0.24,0.8,-0.21,-1.19,0.49
25680,0.59,-0.24,0.79,-0.14,-1.12,0.42
25700,0.59,-0.24,0.8,0.14,-1.26,0.63
25720,0.59,-0.24,0.8,0.35,-1.54,0.56
25740,0.59,-0.24,0.8,0.35,-1.75,0.42
25760,0.59,-0.24,0.8,0.28,-1.54,0.77
25780,0.59,-0.24,0.8,0.84,-0.84,0.98
25800,0.59,-0.24,0.79,0.91,-0.84,0.84
25820,0.59,-0.24,0.79,1.05,-0.56,0.84
25840,0.59,-0.24,0.8,0.49,-1.26,0.77
25860,0.59,-0.24,0.79,0.56,-1.26,0.77
25880,0.59,-0.24,0.8,0.63,-1.47,0.77
25900,0.59,-0.24,0.8,0.49,-1.26,0.77
25920,0.59,-0.24,0.79,0.49,-1.4,0.77
25940,0.59,-0.24,0.79,0.77,-1.75,0.77
25960,0.59,-0.24,0.79,0.77,-1.54,0.84
25980,0.59,-0.24,0.79,-0.07,-1.33,0.77
26000,0.59,-0.24,0.79,0.7,-1.12,0.77
26020,0.59,-0.24,0.79,0.56,-1.19,0.84
26040,0.59,-0.24,0.8,0.28,-1.26,0.7
26060,0.59,-0.24,0.79,0.49,-1.68,0.49
26080,0.59,-0.24,0.79,0.21,-1.33,0.56
26100,0.59,-0.24,0.8,0.42,-1.26,0.49
26120,0.59,-0.24,0.79,0.42,-0.77,0.35
26140,0.59,-0.24,0.79,0.42,-0.91,0.28
26160,0.59,-0.24,0.79,0.35,-0.77,0.35
26180,0.59,-0.24,0.79,0.84,-0.7,0.28
26200,0.59,-0.24,0.8,0.98,-1.33,0.35
26220,0.59,-0.24,0.8,0.21,-0.91,0.7
26240,0.59,-0.24,0.79,0.42,-0.91,0.98
26260,0.59,-0.24,0.79,0.7,-0.84,0.7
26280,0.59,-0.24,0.8,1.33,-1.05,0.63
26300,0.59,-0.24,0.79,0.49,-1.4,0.56
26320,0.59,-0.24,0.79,0.35,-1.19,0.42
26340,0.59,-0.24,0.79,0.35,-1.68,0.49
26360,0.59,-0.24,0.79,0.35,-1.54,0.42
26380,0.59,-0.24,0.79,0.0,-1.75,0.7
26400,0.59,-0.24,0.8,-0.14,-1.96,0.28
26420,0.59,-0.24,0.8,-0.21,-1.96,0.35
26440,0.59,-0.24,0.79,-0.07,-1.61,0.07
26460,0.59,-0.24,0.8,0.35,-1.89,0.0
26480,0.59,-0.24,0.8,-0.07,-1.68,0.0
26500,0.59,-0.24,0.79,0.28,-1.61,0.14
26520,0.59,-0.24,0.79,0.07,-1.89,0.0
26540,0.59,-0.24,0.79,0.21,-1.33,0.14
26560,0.59,-0.24,0.79,-0.28,-1.19,0.14
26580,0.59,-0.24,0.8,-0.21,-0.98,0.0
26600,0.59,-0.24,0.79,0.35,-1.61,0.0
26620,0.59,-0.24,0.79,0.35,-1.61,0.14
26640,0.59,-0.24,0.8,0.0,-1.26,-0.21
26660,0.59,-0.24,0.79,-0.42,-1.26,-0.21
26680,0.59,-0.24,0.79,-0.49,-0.56,-0.28
26700,0.59,-0.24,0.79,-0.35,-0.77,-0.14
26720,0.59,-0.24,0.79,-0.21,-0.91,-0.28
26740,0.59,-0.24,0.79,-0.49,-1.19,-0.42
26760,0.59,-0.24,0.79,-17.92,-0.98,-0.14
26780,0.59,-0.24,0.8,0.0,-1.12,0.07
26800,0.59,-0.24,0.79,-0.49,-1.47,0.14
26820,0.59,-0.24,0.79,-0.21,-1.05,0.0
26840,0.59,-0.24,0.79,-0.42,-0.49,-0.35
26860,0.59,-0.24,0.8,-0.56,-0.63,-0.49
26880,0.59,-0.24,0.8,-0.56,-0.56,-0.28
26900,0.59,-0.25,0.79,0.0,-0.42,-0.28
26920,0.59,-0.24,0.79,-0.49,-0.84,-0.35
26940,0.59,-0.24,0.79,-0.14,-1.19,-0.07
26960,0.59,-0.24,0.79,0.07,-0.98,0.07
26980,0.59,-0.24,0.79,-0.35,-0.63,0.0
27000,0.59,-0.24,0.79,-0.07,-0.98,-0.07
27020,0.59,-0.24,0.8,0.0,-0.56,0.07
27040,0.59,-0.24,0.8,0.14,-0.84,0.14
27060,0.59,-0.24,0.8,0.0,-1.33,0.07
27080,0.59,-0.24,0.8,0.7,-0.91,0.21
27100,0.59,-0.24,0.8,0.7,-0.77,0.63
27120,0.59,-0.24,0.79,0.56,-0.56,0.42
27140,0.59,-0.24,0.79,0.77,-0.49,0.63
27160,0.59,-0.24,0.8,0.49,-0.98,0.7
27180,0.59,-0.24,0.8,1.12,-1.33,0.49
27200,0.59,-0.24,0.8,0.77,-1.33,0.28
27220,0.59,-0.24,0.8,0.56,-1.26,0.56
27240,0.59,-0.24,0.79,0.21,-1.33,0.77
27260,0.59,-0.24,0.79,0.49,-1.19,0.77
27280,0.59,-0.24,0.8,0.21,-1.4,0.7
27300,0.59,-0.24,0.8,0.84,-1.54,0.7
27320,0.59,-0.24,0.79,0.84,-1.4,0.7
27340,0.59,-0.24,0.8,0.49,-1.61,0.84
27360,0.59,-0.24,0.8,0.49,-1.61,0.77
27380,0.59,-0.24,0.79,0.42,-1.75,0.7
27400,0.59,-0.24,0.79,0.35,-1.68,0.42
27420,0.59,-0.24,0.79,0.49,-1.61,0.35
27440,0.59,-0.24,0.8,0.63,-0.98,0.7
27460,0.59,-0.24,0.79,0.56,-1.33,0.56
27480,0.59,-0.24,0.79,1.12,-1.12,0.42
27500,0.59,-0.24,0.79,1.05,-0.77,0.56
27520,0.59,-0.24,0.79,0.7,-0.84,0.35
27540,0.59,-0.24,0.79,0.63,-1.12,0.21
27560,0.59,-0.24,0.79,0.35,-0.56,0.14
27580,0.59,-0.24,0.79,0.91,-0.49,0.0
27600,0.59,-0.24,0.79,0.63,-0.84,0.21
27620,0.59,-0.24,0.79,1.05,-0.63,0.07
27640,0.59,-0.24,0.8,1.19,-1.12,0.21
27660,0.59,-0.24,0.79,0.7,-1.4,0.35
27680,0.59,-0.25,0.79,0.91,-2.31,0.49
27700,0.59,-0.26,0.8,1.61,-3.99,1.26
27720,0.59,-0.25,0.79,2.87,-5.39,1.61
27740,0.58,-0.26,0.8,3.71,-5.95,1.19
27760,0.59,-0.25,0.79,3.71,-7.91,0.49
27780,0.6,-0.24,0.79,2.17,-8.4,0.84
27800,0.6,-0.24,0.8,3.36,-8.33,0.35
27820,0.6,-0.25,0.8,3.22,-8.26,-0.49
27840,0.6,-0.25,0.8,2.45,-8.26,-1.61
27860,0.59,-0.25,0.79,1.19,-9.31,-0.84
27880,0.6,-0.23,0.79,0.35,-10.29,1.33
27900,0.61,-0.23,0.79,-0.56,-10.22,2.03
27920,0.61,-0.23,0.79,0.28,-8.54,0.91
27940,0.61,-0.24,0.78,-0.63,-8.33,-0.14
27960,0.62,-0.24,0.78,0.42,-9.38,-0.14
27980,0.62,-0.25,0.78,1.61,-10.15,0.42
28000,0.63,-0.24,0.78,0.28,-10.43,-0.35
28020,0.62,-0.24,0.78,-0.91,-10.64,-0.28
28040,0.61,-0.23,0.77,-1.33,-11.9,1.26
28060,0.63,-0.23,0.77,-4.48,-10.64,1.26
28080,0.63,-0.22,0.77,-6.44,-9.52,0.42
28100,0.64,-0.23,0.76,-4.76,-8.33,-0.21
28120,0.65,-0.24,0.75,-1.33,-8.82,-1.19
28140,0.65,-0.26,0.74,-3.01,-8.82,-1.4
28160,0.66,-0.27,0.74,-0.98,-10.99,-0.98
28180,0.69,-0.29,0.74,-2.8,-11.13,-4.06
28200,0.7,-0.29,0.72,-7.63,-9.8,-4.55
28220,0.69,-0.26,0.72,-8.47,-6.02,-6.16
28240,0.69,-0.28,0.74,-7.7,-10.15,-9.73
28260,0.69,-0.24,0.73,-7.84,-3.64,-17.29
28280,0.66,-0.22,0.72,-1.05,10.08,-13.51
28300,0.71,-0.22,0.74,2.8,17.92,-12.11
28320,0.71,-0.18,0.74,0.0,35.49,-6.86
28340,0.58,-0.2,0.74,9.03,49.42,6.65
28360,0.56,-0.25,0.79,2.73,36.75,16.45
28380,0.62,-0.27,0.82,12.04,35.28,16.59
28400,0.62,-0.24,0.82,17.64,34.09,6.58
28420,0.56,-0.2,0.79,24.29,31.92,1.54
28440,0.53,-0.18,0.82,28.35,23.66,2.24
28460,0.48,-0.17,0.79,26.81,13.79,9.52
28480,0.47,-0.14,0.8,15.05,0.0,11.9
28500,0.49,-0.14,0.81,-2.52,-17.08,4.76
28520,0.53,-0.15,0.82,-8.26,-28.35,-0.63
28540,0.55,-0.18,0.83,-10.92,-39.48,2.17
28560,0.64,-0.21,0.85,-7.14,-37.45,-3.92
28580,0.69,-0.25,0.8,5.18,-29.19,-16.52
28600,0.64,-0.21,0.73,-1.19,-23.8,-12.39
28620,0.62,-0.18,0.76,-1.96,-15.54,7.63
28640,0.65,-0.21,0.77,1.96,-12.74,12.18
28660,0.66,-0.24,0.76,2.17,-6.72,13.23
28680,0.65,-0.22,0.77,6.02,-3.36,11.9
28700,0.65,-0.19,0.76,0.56,-1.82,10.29
28720,0.63,-0.18,0.77,-0.42,-0.63,10.01
28740,0.63,-0.2,0.79,1.96,2.87,11.76
28760,0.62,-0.22,0.76,-0.91,3.5,9.66
28780,0.63,-0.21,0.77,-3.64,7.07,5.81
28800,0.63,-0.23,0.78,-3.01,5.81,2.03
28820,0.64,-0.22,0.79,1.82,9.45,-2.31
28840,0.63,-0.21,0.78,1.33,9.31,-5.11
28860,0.63,-0.25,0.78,-1.26,16.94,-3.15
28880,0.6,-0.22,0.78,1.4,14.49,-0.98
28900,0.59,-0.2,0.79,1.47,10.85,0.56
28920,0.58,-0.23,0.78,-2.45,9.31,4.27
28940,0.52,-0.23,0.79,-0.56,1.75,4.97
28960,0.53,-0.28,0.78,-0.84,-10.99,8.12
28980,0.57,-0.22,0.81,1.54,-14.14,4.69
29000,0.62,-0.2,0.82,-3.92,-5.46,2.8
29020,0.59,-0.21,0.79,-0.49,-1.75,2.66
29040,0.59,-0.23,0.79,1.75,-3.01,6.09
29060,0.61,-0.25,0.79,2.03,2.31,5.53
29080,0.61,-0.26,0.79,1.54,7.84,3.36
29100,0.61,-0.23,0.8,0.84,8.54,6.51
29120,0.59,-0.24,0.82,3.22,9.87,10.01
29140,0.59,-0.23,0.8,8.33,11.76,14.35
29160,0.59,-0.24,0.8,9.31,10.85,18.13
29180,0.59,-0.27,0.81,6.02,13.02,15.75
29200,0.59,-0.25,0.82,9.17,15.26,11.27
29220,0.58,-0.26,0.81,8.61,13.37,7.0
29240,0.55,-0.24,0.81,9.52,12.32,0.63
29260,0.53,-0.3,0.8,7.98,2.8,-4.41
29280,0.55,-0.23,0.83,11.27,-1.26,-7.21
29300,0.56,-0.21,0.83,10.78,1.05,-6.23
29320,0.51,-0.21,0.83,14.56,-0.42,-10.92
29340,0.52,-0.26,0.82,15.4,-16.24,-8.19
29360,0.6,-0.19,0.84,22.54,-17.29,-13.3
29380,0.65,-0.07,0.83,-9.1,12.11,-10.29
29400,0.56,-0.21,0.81,-20.51,13.51,-2.73
29420,0.55,-0.21,0.82,-23.73,7.56,-1.26
29440,0.53,-0.23,0.85,-14.21,-1.33,-6.58
29460,0.55,-0.28,0.77,-33.74,4.27,-0.63
29480,0.48,-0.31,0.82,-29.82,-9.66,5.81
29500,0.57,-0.25,0.81,-23.8,-15.26,11.41
29520,0.58,-0.23,0.83,-36.33,2.66,5.39
29540,0.57,-0.2,0.86,-12.74,-15.12,2.94
29560,0.59,-0.24,0.84,-11.13,-5.6,-0.21
