timestamp,accX,accY,accZ,gyrX,gyrY,gyrZ
0,-0.45,-0.02,-0.86,17.64,-8.05,-0.98
20,-0.49,-0.19,-1.03,-0.21,-1.68,19.18
40,-0.46,-0.23,-0.94,-2.59,24.22,16.45
60,-0.41,-0.19,-0.86,-8.19,17.22,16.52
80,-0.36,-0.15,-0.85,-9.03,3.57,13.09
100,-0.39,-0.14,-0.89,-12.32,-7.91,10.78
120,-0.4,-0.14,-0.92,-10.43,-4.27,8.82
140,-0.39,-0.13,-0.88,-4.27,2.38,4.13
160,-0.39,-0.11,-0.86,-0.49,-1.19,2.17
180,-0.41,-0.12,-0.9,2.17,-2.24,5.6
200,-0.41,-0.16,-0.9,3.57,-4.41,4.83
220,-0.41,-0.19,-0.96,7.49,0.49,-12.25
240,-0.34,-0.19,-0.89,7.77,6.09,-25.27
260,-0.38,-0.12,-0.89,8.19,-2.38,-28.56
280,-0.4,-0.07,-0.9,7.28,3.99,-20.09
300,-0.39,-0.07,-0.81,13.44,0.0,-3.85
320,-0.47,-0.17,-0.97,-0.14,-18.76,16.1
340,-0.46,-0.23,-1.02,-9.66,16.52,25.41
360,-0.42,-0.18,-0.88,-16.52,16.8,21.98
380,-0.35,-0.13,-0.88,-16.94,6.02,14.84
400,-0.37,-0.12,-0.89,-16.87,-1.54,13.93
420,-0.39,-0.1,-0.91,-16.38,-3.43,15.33
440,-0.41,-0.11,-0.93,-17.57,-0.35,17.71
460,-0.39,-0.12,-0.92,-13.44,8.96,15.96
480,-0.25,-0.1,-0.89,-10.29,8.19,10.99
500,-0.37,-0.1,-0.89,-5.74,3.22,5.18
520,-0.39,-0.09,-0.91,0.07,0.77,3.43
540,-0.39,-0.1,-0.94,3.64,9.45,2.31
560,-0.36,-0.09,-0.89,3.92,2.73,-0.21
580,-0.36,-0.09,-0.94,-3.57,-5.74,-3.85
600,-0.41,-0.07,-0.98,-16.24,-6.09,4.2
620,-0.4,-0.09,-0.97,-20.58,1.12,12.88
640,-0.38,-0.11,-0.95,-26.81,-1.89,4.83
660,-0.4,-0.05,-0.97,-37.66,-3.99,11.48
680,-0.39,-0.04,-0.94,-43.4,1.26,17.57
700,-0.41,-0.0,-0.94,-56.35,0.35,25.97
720,-0.42,0.01,-0.97,-59.5,5.25,39.48
740,-0.4,0.0,-0.99,-61.32,21.63,38.22
760,-0.35,0.05,-0.93,-54.11,33.32,27.37
780,-0.35,0.1,-0.85,-44.1,30.24,22.82
800,-0.3,0.13,-0.85,-33.67,15.96,16.87
820,-0.34,0.17,-0.89,-25.62,1.12,11.97
840,-0.33,0.11,-0.94,-19.53,7.21,4.62
860,-0.33,0.12,-0.94,-14.21,9.03,-1.26
880,-0.29,0.09,-0.9,-13.02,2.59,-19.39
900,-0.29,0.12,-0.96,-21.63,-2.17,-27.51
920,-0.33,0.17,-1.02,-29.4,14.0,-20.72
940,-0.38,0.21,-0.99,-31.43,32.76,13.02
960,-0.38,0.19,-0.95,-46.97,18.06,20.44
980,-0.27,0.11,-0.96,-41.3,31.92,-0.35
1000,-0.27,0.18,-0.96,-52.92,31.43,-17.92
1020,-0.26,0.26,-0.96,-58.24,45.36,-11.55
1040,-0.28,0.28,-0.93,-54.46,50.47,-1.19
1060,-0.2,0.25,-0.87,-47.25,45.71,-3.29
1080,-0.15,0.29,-0.75,-28.56,26.81,-11.62
1100,-0.17,0.33,-0.8,-27.79,-13.02,-27.16
1120,-0.24,0.34,-1.01,-25.62,16.73,-13.09
1140,-0.22,0.38,-0.83,-18.76,31.78,-10.29
1160,-0.18,0.38,-0.81,-16.24,-10.22,-27.72
1180,-0.18,0.33,-0.96,-9.8,9.87,-39.2
1200,-0.14,0.3,-0.9,-7.35,13.93,-60.27
1220,-0.17,0.31,-0.86,1.05,2.31,-65.24
1240,-0.2,0.31,-0.84,0.35,-6.16,-49.49
1260,-0.22,0.31,-0.88,-4.69,-7.42,-25.06
1280,-0.28,0.33,-0.91,-7.84,0.35,-9.8
1300,-0.25,0.35,-0.91,-9.24,4.83,9.59
1320,-0.21,0.33,-0.88,-8.05,6.79,5.18
1340,-0.22,0.35,-0.89,-5.67,-0.7,2.24
1360,-0.23,0.36,-0.94,-3.99,3.99,5.04
1380,-0.22,0.34,-0.89,-3.43,7.49,3.57
1400,-0.2,0.34,-0.87,-2.45,0.28,2.8
1420,-0.2,0.35,-0.88,-1.68,-4.48,-2.66
1440,-0.22,0.37,-0.92,-1.68,-2.59,4.76
1460,-0.21,0.34,-0.87,0.7,0.91,0.56
1480,-0.21,0.33,-0.89,1.89,-5.25,2.1
1500,-0.22,0.34,-0.91,3.71,-1.82,-1.4
1520,-0.22,0.35,-0.9,3.22,-2.24,-0.63
1540,-0.21,0.34,-0.9,2.38,-3.15,1.12
1560,-0.22,0.35,-0.9,3.01,-2.17,1.26
1580,-0.23,0.34,-0.92,3.01,-0.42,3.15
1600,-0.22,0.33,-0.91,2.45,0.98,2.59
1620,-0.21,0.35,-0.91,3.43,1.05,1.47
1640,-0.21,0.34,-0.9,2.1,-1.12,4.2
1660,-0.22,0.35,-0.92,1.82,1.54,3.43
1680,-0.21,0.34,-0.91,0.63,2.52,6.09
1700,-0.21,0.34,-0.9,0.14,3.36,8.61
1720,-0.21,0.35,-0.92,-0.14,2.31,8.89
1740,-0.21,0.35,-0.93,0.42,5.32,11.69
1760,-0.18,0.35,-0.91,1.96,8.26,16.24
1780,-0.2,0.35,-0.89,0.63,5.39,16.17
1800,-0.19,0.36,-0.9,1.12,-1.26,13.3
1820,-0.2,0.35,-0.93,0.28,-0.14,11.9
1840,-0.18,0.33,-0.91,-0.21,-0.14,10.29
1860,-0.18,0.33,-0.91,-2.03,-1.68,5.88
1880,-0.16,0.32,-0.91,-4.34,-4.2,3.36
1900,-0.19,0.35,-0.91,-1.54,-5.18,2.52
1920,-0.2,0.37,-0.89,1.26,-2.1,7.42
1940,-0.15,0.33,-0.89,2.03,-6.93,-0.7
1960,-0.21,0.36,-0.95,1.12,-1.75,4.2
1980,-0.18,0.33,-0.9,2.1,1.19,2.24
2000,-0.18,0.33,-0.91,4.13,-3.29,3.29
2020,-0.19,0.32,-0.89,3.43,0.56,0.84
2040,-0.17,0.35,-0.87,1.33,0.77,1.75
2060,-0.16,0.35,-0.87,1.61,-6.44,-2.31
2080,-0.18,0.34,-0.92,-0.63,-7.14,-4.97
2100,-0.2,0.35,-0.91,2.03,-2.31,-2.03
2120,-0.19,0.35,-0.9,5.81,-4.97,-4.62
2140,-0.18,0.34,-0.92,4.76,-6.58,-4.41
2160,-0.19,0.34,-0.91,2.87,-3.29,-5.25
2180,-0.19,0.34,-0.92,1.96,-3.01,-2.24
2200,-0.2,0.34,-0.92,0.63,-2.38,-2.8
2220,-0.19,0.34,-0.91,-0.49,-0.63,-3.57
2240,-0.2,0.35,-0.91,0.77,-1.96,-2.38
2260,-0.21,0.35,-0.91,0.56,0.56,-1.19
2280,-0.2,0.34,-0.91,2.31,-0.07,-2.17
2300,-0.21,0.33,-0.91,2.52,1.61,-3.71
2320,-0.2,0.35,-0.9,1.54,0.63,-0.98
2340,-0.19,0.35,-0.9,2.03,1.4,0.21
2360,-0.19,0.34,-0.9,3.92,-2.87,-0.14
2380,-0.2,0.33,-0.93,3.78,-2.87,-1.54
2400,-0.2,0.34,-0.91,1.33,1.12,-2.38
2420,-0.19,0.33,-0.91,3.15,-2.31,-1.19
2440,-0.2,0.33,-0.92,2.59,-1.61,-2.94
2460,-0.2,0.34,-0.9,3.36,-1.19,-1.33
2480,-0.19,0.33,-0.9,3.92,-1.75,-1.61
2500,-0.2,0.34,-0.91,4.9,-1.96,-1.33
2520,-0.19,0.33,-0.92,6.3,0.07,-3.36
2540,-0.17,0.31,-0.89,11.9,-4.06,-5.04
2560,-0.18,0.32,-0.89,14.28,-7.28,-19.74
2580,-0.19,0.29,-0.89,22.12,-14.7,-24.15
2600,-0.21,0.3,-0.89,32.48,-14.07,-33.32
2620,-0.2,0.3,-0.85,46.62,-15.05,-27.58
2640,-0.19,0.24,-0.82,53.13,-26.88,-36.47
2660,-0.21,0.21,-0.86,70.91,-34.93,-51.94
2680,-0.33,0.23,-0.99,66.85,-30.73,-46.13
2700,-0.33,0.16,-0.97,57.89,-10.43,-37.52
2720,-0.28,0.13,-0.9,60.76,-5.18,-29.68
2740,-0.31,0.13,-0.9,61.11,-13.65,-36.4
2760,-0.27,0.07,-0.96,54.32,-10.43,-29.47
2780,-0.27,0.1,-0.93,65.52,-7.42,-25.69
2800,-0.35,0.04,-0.97,70.07,-5.81,-19.11
2820,-0.33,-0.09,-0.96,58.1,13.58,-21.21
2840,-0.26,0.11,-0.86,70.07,19.88,-22.96
2860,-0.34,-0.01,-0.94,61.11,-7.28,-7.77
2880,-0.32,-0.06,-0.96,56.49,-2.59,0.98
2900,-0.28,-0.08,-0.94,54.04,-5.53,5.32
2920,-0.32,-0.14,-0.94,51.94,-10.99,1.05
2940,-0.37,-0.14,-0.98,43.82,-15.54,9.94
2960,-0.33,-0.19,-0.98,36.19,-5.74,12.11
2980,-0.3,-0.22,-0.94,32.06,6.09,1.61
3000,-0.33,-0.19,-0.93,33.11,1.54,6.86
3020,-0.32,-0.15,-0.97,27.86,7.28,8.26
3040,-0.3,-0.17,-0.93,27.86,9.1,16.24
3060,-0.34,-0.23,-0.95,32.13,7.42,13.37
3080,-0.32,-0.21,-0.96,31.57,12.04,16.45
3100,-0.34,-0.21,-0.96,26.11,13.72,16.94
3120,-0.29,-0.22,-0.91,22.96,17.78,15.96
3140,-0.27,-0.25,-0.83,33.53,13.37,3.99
3160,-0.28,-0.24,-0.88,40.6,0.56,9.03
3180,-0.33,-0.32,-0.96,27.93,-6.72,13.58
3200,-0.31,-0.33,-1.0,19.18,8.47,9.45
3220,-0.24,-0.33,-0.91,17.64,12.53,0.56
3240,-0.26,-0.3,-0.92,13.09,0.21,-0.56
3260,-0.27,-0.29,-0.94,7.07,0.77,-2.1
3280,-0.27,-0.29,-0.87,10.92,2.03,-8.12
3300,-0.26,-0.29,-0.89,13.02,-7.49,-5.95
3320,-0.27,-0.3,-0.89,17.64,-0.21,-7.49
3340,-0.31,-0.31,-0.93,6.09,-10.78,1.54
3360,-0.29,-0.33,-0.93,3.36,2.17,-0.7
3380,-0.26,-0.33,-0.87,6.79,-4.2,-3.71
3400,-0.28,-0.33,-0.94,1.47,-8.33,-3.71
3420,-0.28,-0.34,-0.93,0.98,5.46,-0.35
3440,-0.27,-0.33,-0.92,-1.75,1.05,-2.66
3460,-0.25,-0.3,-0.89,-1.47,2.45,-6.58
3480,-0.28,-0.3,-0.89,3.15,3.43,-6.09
3500,-0.26,-0.33,-0.88,4.55,-2.1,-8.89
3520,-0.28,-0.33,-0.9,0.49,-8.89,-9.17
3540,-0.28,-0.3,-0.9,14.42,8.96,-11.13
3560,-0.24,-0.29,-0.86,18.9,4.27,-10.71
3580,-0.27,-0.32,-0.89,17.15,-1.96,-9.17
3600,-0.28,-0.38,-0.92,6.79,-5.18,-6.02
3620,-0.27,-0.36,-0.91,10.92,8.96,-3.85
3640,-0.27,-0.33,-0.85,10.36,-0.98,0.84
3660,-0.27,-0.36,-0.96,10.99,3.85,2.17
3680,-0.25,-0.38,-0.9,10.99,13.23,-0.7
3700,-0.26,-0.35,-0.84,11.69,3.85,5.11
3720,-0.26,-0.35,-0.87,7.98,-12.39,7.14
3740,-0.27,-0.36,-0.94,3.78,-8.12,4.48
3760,-0.27,-0.36,-0.92,1.05,-3.01,5.67
3780,-0.37,-0.34,-0.82,14.07,8.19,0.35
3800,-0.23,-0.34,-0.77,20.65,-15.19,4.83
3820,-0.34,-0.34,-0.96,5.11,-24.71,16.59
3840,-0.28,-0.39,-0.9,6.3,9.8,12.32
3860,-0.21,-0.4,-0.81,18.06,4.41,-2.8
3880,-0.26,-0.37,-0.87,14.28,-10.08,-4.2
3900,-0.25,-0.4,-0.86,11.62,5.6,3.85
3920,-0.27,-0.45,-0.85,11.83,3.15,3.29
3940,-0.26,-0.47,-0.88,16.59,8.54,-2.1
3960,-0.28,-0.42,-0.85,13.23,2.17,-2.94
3980,-0.28,-0.44,-0.92,3.08,-4.69,-4.76
4000,-0.24,-0.41,-0.89,9.66,6.3,-11.2
4020,-0.29,-0.36,-0.83,9.45,-0.56,2.66
4040,-0.28,-0.4,-0.88,-2.94,-16.38,8.89
4060,-0.29,-0.41,-0.87,-6.3,-1.96,10.92
4080,-0.26,-0.4,-0.86,-6.23,-5.53,7.0
4100,-0.28,-0.39,-0.85,-1.47,3.92,2.73
4120,-0.21,-0.37,-0.8,1.4,0.21,5.95
4140,-0.3,-0.4,-0.85,-6.93,-12.25,11.48
4160,-0.25,-0.37,-0.84,-1.89,4.27,5.46
4180,-0.18,-0.33,-0.73,0.56,3.71,6.44
4200,-0.32,-0.41,-0.76,-2.17,-21.84,13.51
4220,-0.29,-0.45,-0.84,6.02,-7.91,3.36
4240,-0.36,-0.41,-0.97,-6.16,-14.56,1.54
4260,-0.34,-0.4,-1.04,-7.14,-8.12,-10.78
4280,-0.26,-0.53,-1.0,0.07,26.11,-12.46
4300,-0.25,-0.41,-0.71,1.89,-7.35,-5.11
4320,-0.35,-0.38,-0.94,-18.62,-57.26,14.35
4340,-0.39,-0.42,-1.07,-47.88,-46.34,22.54
4360,-0.37,-0.38,-0.99,-59.92,-19.53,29.89
4380,-0.33,-0.29,-0.87,-54.32,-2.66,23.24
4400,-0.28,-0.19,-0.8,-46.41,-4.97,22.82
4420,-0.32,-0.22,-0.82,-40.11,-21.63,24.78
4440,-0.38,-0.27,-0.89,-34.37,-21.21,23.66
4460,-0.39,-0.29,-0.92,-31.57,-11.2,19.04
4480,-0.35,-0.27,-0.9,-25.97,2.59,13.51
4500,-0.34,-0.23,-0.86,-25.13,-1.05,10.43
4520,-0.41,-0.23,-0.89,-17.92,-6.23,8.61
4540,-0.38,-0.22,-0.89,-12.18,-4.34,5.11
4560,-0.38,-0.19,-0.9,-0.14,2.38,3.78
4580,-0.35,-0.18,-0.87,7.56,2.8,0.07
4600,-0.35,-0.2,-0.86,19.81,-1.33,-8.05
4620,-0.37,-0.21,-0.89,39.83,6.16,-15.82
4640,-0.43,-0.22,-0.96,44.94,6.86,-19.11
4660,-0.37,-0.22,-0.98,24.64,18.34,-8.96
4680,-0.29,-0.27,-0.78,25.27,17.57,-6.02
4700,-0.38,-0.32,-0.94,11.06,-22.54,1.33
4720,-0.39,-0.39,-0.99,-7.84,9.73,4.48
4740,-0.33,-0.32,-0.84,-12.81,14.49,2.59
4760,-0.34,-0.25,-0.84,-12.46,-8.26,-1.33
4780,-0.36,-0.23,-0.92,-9.66,-5.39,3.64
4800,-0.37,-0.24,-0.89,-6.58,0.42,4.41
4820,-0.37,-0.24,-0.89,-6.58,-1.68,9.8
4840,-0.37,-0.28,-0.89,-7.7,0.35,9.94
4860,-0.36,-0.28,-0.89,-8.12,-1.26,5.04
4880,-0.35,-0.25,-0.88,-7.84,-0.98,4.48
4900,-0.36,-0.25,-0.88,-6.37,-4.9,2.87
4920,-0.35,-0.25,-0.91,-4.9,-3.92,1.33
4940,-0.36,-0.24,-0.9,-1.89,-1.12,1.82
4960,-0.37,-0.24,-0.93,-1.05,-2.8,1.19
4980,-0.35,-0.27,-0.9,-0.77,2.66,-7.49
5000,-0.33,-0.23,-0.86,1.54,-4.83,-12.18
5020,-0.36,-0.23,-0.89,4.62,-8.4,-12.53
5040,-0.37,-0.23,-0.92,0.84,-12.6,-6.37
5060,-0.38,-0.25,-0.99,-2.24,1.61,-3.85
5080,-0.35,-0.24,-0.9,-8.12,10.29,-1.12
5100,-0.35,-0.25,-0.88,-6.16,7.63,-1.68
5120,-0.35,-0.22,-0.88,0.35,7.07,-2.38
5140,-0.37,-0.2,-0.9,3.01,8.68,3.36
5160,-0.32,-0.21,-0.87,9.24,10.29,0.21
5180,-0.35,-0.24,-0.93,5.04,-3.08,4.97
5200,-0.35,-0.27,-0.91,0.63,6.58,3.5
5220,-0.34,-0.27,-0.9,-3.71,0.7,4.34
5240,-0.33,-0.28,-0.88,-5.04,5.04,3.64
5260,-0.33,-0.25,-0.88,-4.27,-4.97,1.12
5280,-0.33,-0.23,-0.93,-5.6,-2.73,0.84
5300,-0.33,-0.21,-0.89,-4.2,-1.05,-2.73
5320,-0.33,-0.24,-0.9,-0.56,-6.65,-2.59
5340,-0.33,-0.28,-0.93,-0.49,-2.59,-10.99
5360,-0.33,-0.25,-0.9,1.05,1.33,-15.82
5380,-0.31,-0.28,-0.89,-8.05,-14.0,-18.34
5400,-0.33,-0.27,-0.92,-6.93,-5.53,-29.47
5420,-0.31,-0.22,-0.86,-3.08,-2.31,-31.08
5440,-0.35,-0.19,-0.91,-4.34,-13.44,-20.23
5460,-0.36,-0.18,-0.9,6.02,10.92,-12.39
5480,-0.31,-0.18,-0.84,0.77,-11.76,-4.2
5500,-0.4,-0.27,-1.03,-5.32,-6.37,6.16
5520,-0.34,-0.24,-0.88,4.62,24.08,1.05
5540,-0.33,-0.21,-0.88,6.37,-2.52,3.85
5560,-0.36,-0.25,-0.97,4.9,12.46,6.51
5580,-0.32,-0.24,-0.87,7.42,16.17,6.65
5600,-0.31,-0.26,-0.89,4.06,3.01,4.62
5620,-0.31,-0.26,-0.9,2.45,2.38,5.53
5640,-0.31,-0.27,-0.9,-2.8,-6.79,5.04
5660,-0.32,-0.27,-0.91,-3.71,-5.88,1.82
5680,-0.31,-0.24,-0.9,-5.53,-7.28,3.92
5700,-0.33,-0.26,-0.92,-4.62,-5.18,1.05
5720,-0.31,-0.27,-0.89,2.03,-1.33,-9.52
5740,-0.27,-0.32,-0.97,-1.82,-9.52,-30.1
5760,-0.3,-0.26,-0.91,6.72,17.64,-45.78
5780,-0.25,-0.2,-0.78,12.67,-4.76,-42.77
5800,-0.36,-0.18,-0.89,12.67,-22.4,-21.77
5820,-0.42,-0.2,-0.99,8.05,-6.58,4.13
5840,-0.39,-0.31,-1.01,-5.67,6.79,17.71
5860,-0.34,-0.29,-0.92,-7.21,19.81,9.17
5880,-0.31,-0.23,-0.87,-2.17,14.49,11.9
5900,-0.3,-0.24,-0.9,-4.06,1.47,10.85
5920,-0.32,-0.26,-0.93,-4.06,12.11,7.98
5940,-0.29,-0.24,-0.89,-0.7,7.77,9.31
5960,-0.3,-0.27,-0.92,-2.17,4.34,10.36
5980,-0.28,-0.29,-0.9,-2.66,5.32,3.92
6000,-0.28,-0.25,-0.87,-0.84,-1.47,2.52
6020,-0.3,-0.21,-0.9,-2.73,-11.27,5.95
6040,-0.32,-0.24,-0.96,-9.59,-11.13,10.64
6060,-0.33,-0.25,-0.95,-16.59,-3.92,13.3
6080,-0.32,-0.25,-0.93,-16.1,1.26,10.43
6100,-0.3,-0.21,-0.91,-12.74,2.94,9.73
6120,-0.31,-0.19,-0.92,-12.67,0.49,15.12
6140,-0.3,-0.2,-0.94,-11.2,8.82,14.56
6160,-0.3,-0.22,-0.89,0.98,8.4,4.27
6180,-0.29,-0.14,-0.86,10.78,7.21,8.19
6200,-0.32,-0.2,-0.9,12.95,-8.05,5.74
6220,-0.34,-0.23,-0.97,9.03,0.84,8.89
6240,-0.32,-0.25,-0.93,2.73,4.13,8.61
6260,-0.31,-0.23,-0.91,-1.68,1.12,7.21
6280,-0.29,-0.23,-0.93,-6.02,-2.8,7.63
6300,-0.29,-0.21,-0.9,-7.77,-3.01,8.05
6320,-0.3,-0.21,-0.92,-7.0,-10.71,5.74
6340,-0.31,-0.21,-0.93,-4.48,-3.29,6.44
6360,-0.3,-0.2,-0.92,-2.73,-2.59,2.52
6380,-0.3,-0.2,-0.92,-1.82,-0.84,2.38
6400,-0.31,-0.17,-0.92,0.63,0.98,1.89
6420,-0.3,-0.16,-0.92,-0.42,-3.71,5.32
6440,-0.32,-0.18,-0.94,-1.4,-2.1,6.72
6460,-0.32,-0.2,-0.92,-3.43,-0.14,6.44
6480,-0.32,-0.18,-0.9,-4.55,-6.58,11.27
6500,-0.32,-0.17,-0.95,-9.52,-12.67,15.68
6520,-0.35,-0.16,-0.98,-17.64,-8.89,21.98
6540,-0.35,-0.16,-0.96,-26.88,-6.23,25.34
6560,-0.35,-0.14,-0.95,-28.98,-2.38,27.09
6580,-0.33,-0.14,-0.93,-30.73,1.89,25.97
6600,-0.33,-0.12,-0.93,-28.91,4.41,23.73
6620,-0.32,-0.11,-0.91,-20.79,8.61,18.62
6640,-0.32,-0.1,-0.88,-5.88,11.83,15.82
6660,-0.3,-0.08,-0.87,6.02,3.92,7.63
6680,-0.31,-0.08,-0.94,17.57,4.41,5.6
6700,-0.35,-0.08,-0.94,26.11,18.9,11.9
6720,-0.32,-0.08,-0.91,26.25,19.25,15.05
6740,-0.27,-0.13,-0.9,22.33,3.5,10.22
6760,-0.3,-0.18,-0.95,14.35,-3.22,0.91
6780,-0.28,-0.2,-0.91,8.96,-4.62,-7.7
6800,-0.3,-0.19,-0.93,-5.25,-22.4,-8.4
6820,-0.33,-0.17,-0.98,-10.08,-12.74,-6.09
6840,-0.31,-0.14,-0.94,-10.92,-7.56,-6.09
6860,-0.33,-0.08,-0.94,-11.06,-10.71,-2.03
6880,-0.32,-0.11,-0.93,-10.5,-5.88,-0.42
6900,-0.31,-0.11,-0.94,-12.25,-4.55,0.42
6920,-0.33,-0.11,-0.95,-11.69,-2.45,4.48
6940,-0.32,-0.12,-0.91,-8.75,-0.42,-0.49
6960,-0.31,-0.1,-0.91,-7.28,-7.42,-2.59
6980,-0.33,-0.09,-0.94,-5.25,-6.72,0.49
7000,-0.33,-0.11,-0.94,-5.39,-5.6,0.91
7020,-0.33,-0.09,-0.93,-3.36,-1.47,0.77
7040,-0.33,-0.09,-0.92,-2.17,-5.81,4.13
7060,-0.33,-0.1,-0.94,-2.52,-4.97,3.57
7080,-0.32,-0.1,-0.91,-2.24,-5.18,-2.03
7100,-0.33,-0.1,-0.92,-0.35,-9.59,-2.31
7120,-0.34,-0.1,-0.92,0.56,-9.94,-4.06
7140,-0.34,-0.1,-0.94,-1.19,-9.17,-7.84
7160,-0.35,-0.07,-0.96,0.49,-3.64,-5.04
7180,-0.34,-0.09,-0.91,1.82,-2.8,-4.34
7200,-0.34,-0.09,-0.9,3.85,-6.79,-5.6
7220,-0.36,-0.1,-0.94,7.49,-9.31,-7.91
7240,-0.38,-0.1,-0.95,3.78,3.08,-8.12
7260,-0.33,-0.08,-0.88,9.94,-0.63,-11.62
7280,-0.32,-0.08,-0.9,16.87,-3.85,-15.26
7300,-0.35,-0.1,-0.92,14.63,-5.32,-6.93
7320,-0.37,-0.16,-0.95,11.55,-1.4,-9.8
7340,-0.36,-0.15,-0.93,7.91,3.71,-14.7
7360,-0.35,-0.13,-0.94,6.16,7.07,-16.45
7380,-0.32,-0.17,-0.91,7.0,8.33,-21.49
7400,-0.33,-0.15,-0.92,14.35,13.51,-35.98
7420,-0.29,-0.12,-0.85,26.74,12.25,-39.83
7440,-0.32,-0.14,-0.88,32.48,2.45,-25.62
7460,-0.37,-0.15,-0.95,37.94,8.26,-18.97
7480,-0.34,-0.18,-0.95,33.74,13.09,-11.48
7500,-0.34,-0.2,-0.95,29.68,13.16,-6.65
7520,-0.32,-0.24,-0.93,22.89,15.61,-0.77
7540,-0.3,-0.26,-0.88,21.56,10.15,-4.97
7560,-0.32,-0.23,-0.91,20.37,5.18,4.76
7580,-0.31,-0.26,-0.9,20.02,-0.07,10.71
7600,-0.33,-0.27,-0.98,11.69,-5.25,7.07
7620,-0.28,-0.29,-0.91,12.53,4.55,2.45
7640,-0.3,-0.3,-0.91,8.82,-9.73,0.7
7660,-0.28,-0.29,-0.92,5.6,-8.47,-2.24
7680,-0.3,-0.27,-0.93,-0.14,-10.08,-3.43
7700,-0.32,-0.26,-0.91,1.75,1.26,1.4
7720,-0.28,-0.25,-0.85,7.63,-3.57,-1.61
7740,-0.31,-0.27,-0.92,7.98,-11.41,0.21
7760,-0.3,-0.27,-0.93,7.84,-4.76,-1.05
7780,-0.31,-0.29,-0.88,10.15,-3.71,-6.44
7800,-0.31,-0.29,-0.9,13.23,-10.99,-4.41
7820,-0.32,-0.3,-0.92,11.06,-7.7,-7.14
7840,-0.3,-0.31,-0.9,6.79,-5.46,-8.89
7860,-0.31,-0.28,-0.87,11.34,-8.12,-7.14
7880,-0.33,-0.3,-0.91,8.54,-9.87,-3.15
7900,-0.34,-0.32,-0.91,9.73,-3.57,1.96
7920,-0.33,-0.3,-0.91,9.1,1.12,0.77
7940,-0.31,-0.32,-0.88,6.37,-0.21,-3.15
7960,-0.3,-0.34,-0.86,4.69,-5.25,-9.1
7980,-0.34,-0.32,-0.87,2.59,-14.35,-3.99
8000,-0.33,-0.3,-0.93,-0.7,-7.84,-7.07
8020,-0.3,-0.26,-0.8,16.1,1.61,-4.06
8040,-0.34,-0.35,-0.93,14.0,-17.22,-0.28
8060,-0.34,-0.33,-0.96,6.72,6.72,0.14
8080,-0.31,-0.36,-0.86,4.13,16.1,-0.84
8100,-0.3,-0.35,-0.84,0.35,-4.34,1.05
8120,-0.34,-0.33,-0.9,1.61,0.21,3.92
8140,-0.31,-0.34,-1.0,3.78,2.24,-1.19
8160,-0.32,-0.32,-0.9,8.47,3.64,-2.52
8180,-0.3,-0.33,-0.86,16.8,12.32,-5.32
8200,-0.31,-0.36,-0.87,18.69,6.79,-6.79
8220,-0.28,-0.34,-0.77,22.47,5.88,-5.32
8240,-0.34,-0.4,-0.88,5.11,-46.9,4.69
8260,-0.38,-0.38,-1.0,-10.71,-16.45,6.93
8280,-0.33,-0.34,-0.87,-4.9,6.51,11.06
8300,-0.32,-0.35,-0.87,-1.19,-6.44,10.92
8320,-0.3,-0.35,-0.87,12.32,2.8,-8.26
8340,-0.29,-0.32,-0.8,23.38,-1.47,-2.03
8360,-0.32,-0.38,-0.84,19.18,-11.06,-1.82
8380,-0.33,-0.38,-0.87,15.96,-1.82,-1.54
8400,-0.33,-0.37,-0.91,3.5,-1.68,-3.01
8420,-0.34,-0.37,-0.91,2.94,13.65,-2.45
8440,-0.32,-0.42,-0.86,3.92,11.55,-1.82
8460,-0.32,-0.39,-0.87,8.89,11.2,-4.27
8480,-0.31,-0.38,-0.84,16.31,9.8,-4.55
8500,-0.28,-0.38,-0.77,14.0,-6.02,-6.51
8520,-0.32,-0.38,-0.85,6.51,-34.02,-2.03
8540,-0.37,-0.4,-0.99,-11.9,-25.55,9.94
8560,-0.36,-0.39,-0.92,-18.76,1.33,8.26
8580,-0.29,-0.36,-0.82,-1.89,13.93,-0.7
8600,-0.3,-0.35,-0.83,17.29,8.75,-9.17
8620,-0.28,-0.42,-0.83,21.49,14.7,-9.31
8640,-0.29,-0.44,-0.82,7.7,1.75,-5.18
8660,-0.29,-0.45,-0.88,1.05,6.23,-7.35
8680,-0.34,-0.41,-0.87,-9.94,4.41,-6.44
8700,-0.27,-0.39,-0.85,-4.9,4.41,-6.79
8720,-0.3,-0.36,-0.85,5.88,5.67,-9.31
8740,-0.33,-0.39,-0.89,12.53,8.4,-7.35
8760,-0.3,-0.39,-0.89,12.25,19.88,-2.38
8780,-0.29,-0.39,-0.75,9.73,3.15,1.47
8800,-0.32,-0.47,-0.91,-7.98,-41.02,7.28
8820,-0.37,-0.44,-0.96,-19.67,-12.81,7.84
8840,-0.28,-0.37,-0.83,-5.67,5.81,0.56
8860,-0.31,-0.33,-0.87,-4.55,-11.06,8.89
8880,-0.3,-0.39,-0.91,-2.31,7.21,3.71
8900,-0.24,-0.38,-0.78,10.22,13.58,-5.11
8920,-0.29,-0.39,-0.82,10.5,-5.6,0.42
8940,-0.31,-0.41,-0.86,-1.68,-2.1,4.9
8960,-0.3,-0.44,-0.8,-2.17,2.94,-3.36
8980,-0.26,-0.39,-0.83,8.26,0.49,-7.49
9000,-0.24,-0.34,-0.81,20.44,12.32,-9.24
9020,-0.31,-0.45,-0.82,15.96,-2.73,-6.65
9040,-0.33,-0.5,-0.97,14.14,-9.73,-7.21
9060,-0.35,-0.48,-0.92,10.15,19.39,-4.83
9080,-0.28,-0.42,-0.84,-1.19,-5.53,7.63
9100,-0.33,-0.46,-0.88,-13.02,-24.5,7.91
9120,-0.32,-0.47,-0.92,-22.61,-26.11,9.94
9140,-0.33,-0.4,-0.9,-29.54,-16.94,5.88
9160,-0.29,-0.33,-0.86,-14.35,-6.93,2.45
9180,-0.3,-0.33,-0.83,1.26,-2.73,3.57
9200,-0.25,-0.35,-0.81,11.83,4.55,-7.49
9220,-0.3,-0.4,-0.89,8.4,-6.23,-0.42
9240,-0.31,-0.39,-0.89,-1.33,12.32,5.95
9260,-0.31,-0.4,-0.81,-6.93,19.32,-2.1
9280,-0.27,-0.4,-0.8,-10.22,-0.91,-2.8
9300,-0.25,-0.34,-0.85,3.64,11.34,-3.92
9320,-0.3,-0.39,-0.82,11.06,18.06,0.77
9340,-0.31,-0.47,-0.84,5.6,-0.98,1.12
9360,-0.33,-0.48,-0.92,-0.21,-4.34,-6.79
9380,-0.3,-0.46,-0.98,1.33,5.25,-16.8
9400,-0.32,-0.35,-0.88,12.88,28.42,-12.32
9420,-0.29,-0.4,-0.86,-4.13,-2.52,-4.83
9440,-0.27,-0.38,-0.8,-3.78,-3.57,-23.87
9460,-0.27,-0.41,-0.88,-7.49,-55.65,2.87
9480,-0.38,-0.49,-1.04,-31.22,-31.85,16.24
9500,-0.33,-0.41,-0.88,-37.73,5.25,6.23
9520,-0.13,-0.28,-0.74,-20.86,0.91,-3.22
9540,-0.27,-0.26,-0.82,-3.29,-23.03,1.47
9560,-0.34,-0.35,-0.94,-3.36,-7.63,7.56
9580,-0.27,-0.41,-0.83,3.15,13.51,-2.1
9600,-0.29,-0.42,-0.82,5.6,0.63,-4.83
9620,-0.3,-0.39,-0.89,0.98,-7.07,-0.7
9640,-0.33,-0.37,-0.93,-11.41,0.28,5.25
9660,-0.31,-0.39,-0.85,-11.34,5.11,-1.47
9680,-0.29,-0.35,-0.88,-3.64,-4.27,-8.61
9700,-0.28,-0.35,-0.89,10.43,4.48,-21.21
9720,-0.27,-0.31,-0.9,18.2,21.84,-15.75
9740,-0.21,-0.31,-0.84,26.67,32.83,-7.98
9760,-0.32,-0.39,-0.79,27.09,20.58,-8.96
9780,-0.27,-0.43,-0.89,15.89,-2.94,-8.68
9800,-0.28,-0.4,-0.9,19.18,26.81,-2.45
9820,-0.36,-0.4,-0.85,14.7,11.06,-4.55
9840,-0.19,-0.43,-0.9,6.16,0.14,0.91
9860,-0.33,-0.38,-0.81,-7.7,-4.34,11.97
9880,-0.3,-0.46,-0.89,-21.91,-59.15,33.67
9900,-0.4,-0.5,-1.07,-51.94,-41.44,32.06
9920,-0.33,-0.43,-1.02,-64.96,-10.57,29.12
9940,-0.27,-0.33,-0.85,-52.15,9.73,15.68
9960,-0.27,-0.23,-0.75,-40.81,-11.27,13.23
9980,-0.29,-0.21,-0.81,-30.17,-33.04,15.47
10000,-0.34,-0.26,-0.91,-18.13,-22.19,18.76
10020,-0.36,-0.27,-0.9,-13.58,-13.93,19.6
10040,-0.37,-0.28,-0.9,-15.68,-14.56,21.14
10060,-0.34,-0.28,-0.88,-16.1,-5.6,16.38
10080,-0.33,-0.27,-0.88,-13.86,-4.48,14.0
10100,-0.34,-0.24,-0.87,-9.24,-7.35,12.81
10120,-0.37,-0.24,-0.92,-8.12,-7.84,14.56
10140,-0.37,-0.24,-0.93,-9.17,-0.42,13.23
10160,-0.36,-0.24,-0.9,-4.76,7.35,11.69
10180,-0.36,-0.24,-0.87,0.21,1.61,10.78
10200,-0.37,-0.25,-0.88,5.74,2.52,3.71
10220,-0.35,-0.22,-0.86,20.3,3.15,-3.43
10240,-0.37,-0.21,-0.89,29.26,1.82,-4.48
10260,-0.37,-0.21,-0.92,35.07,9.31,-3.64
10280,-0.4,-0.18,-0.94,28.28,15.47,5.88
10300,-0.34,-0.22,-0.85,23.24,11.69,21.98
10320,-0.35,-0.39,-0.91,11.83,-1.26,23.59
10340,-0.33,-0.39,-0.92,-4.06,4.55,14.42
10360,-0.32,-0.35,-0.86,-11.06,2.94,9.52
10380,-0.32,-0.3,-0.86,-8.26,-5.18,5.6
10400,-0.34,-0.24,-0.88,-2.52,-6.23,3.08
10420,-0.36,-0.24,-0.93,-6.51,-7.56,10.85
10440,-0.38,-0.25,-0.94,-11.76,1.68,14.07
10460,-0.35,-0.28,-0.89,-11.06,1.54,11.34
10480,-0.34,-0.27,-0.88,-5.46,2.8,2.52
10500,-0.33,-0.24,-0.84,-2.31,-4.34,-1.47
10520,-0.37,-0.27,-0.92,-3.29,-10.36,1.26
10540,-0.36,-0.26,-0.92,-2.31,1.4,-0.28
10560,-0.34,-0.24,-0.87,-0.35,1.12,-1.89
10580,-0.35,-0.27,-0.88,1.68,-4.97,-4.83
10600,-0.34,-0.28,-0.91,3.29,-5.39,-17.08
10620,-0.35,-0.25,-0.89,0.35,-11.34,-21.07
10640,-0.37,-0.26,-0.93,-2.17,-10.08,-23.1
10660,-0.35,-0.26,-0.92,-13.51,-14.07,-26.11
10680,-0.37,-0.2,-1.0,-11.62,9.66,-22.33
10700,-0.36,-0.13,-0.72,10.01,34.23,-14.35
10720,-0.37,-0.21,-0.79,11.13,-40.95,8.68
10740,-0.47,-0.3,-1.15,-11.62,-14.35,20.93
10760,-0.38,-0.28,-0.94,-16.38,31.99,16.24
10780,-0.31,-0.24,-0.8,-6.79,6.3,2.66
10800,-0.33,-0.21,-0.91,-1.33,-5.18,0.21
10820,-0.35,-0.21,-0.93,-4.13,0.77,6.3
10840,-0.36,-0.24,-0.9,-2.1,5.25,6.37
10860,-0.33,-0.26,-0.88,-3.22,3.08,4.2
10880,-0.35,-0.25,-0.89,-4.27,-0.63,3.85
10900,-0.33,-0.26,-0.87,-6.09,-0.7,3.43
10920,-0.34,-0.24,-0.88,-6.51,-8.12,0.77
10940,-0.35,-0.24,-0.91,-7.28,-8.26,-1.96
10960,-0.35,-0.23,-0.91,-7.28,-4.06,-6.37
10980,-0.35,-0.22,-0.89,-2.87,-5.46,-7.84
11000,-0.35,-0.22,-0.91,-0.77,-6.37,-10.57
11020,-0.36,-0.21,-0.9,2.38,-2.66,-9.87
11040,-0.35,-0.24,-0.9,3.78,-5.53,-17.36
11060,-0.34,-0.24,-0.88,6.65,-9.45,-24.15
11080,-0.35,-0.24,-0.91,1.96,-17.99,-28.63
11100,-0.35,-0.26,-0.91,-4.41,-12.04,-30.73
11120,-0.37,-0.24,-0.92,-12.39,-9.73,-27.44
11140,-0.38,-0.2,-0.92,-12.18,-5.18,-23.38
11160,-0.36,-0.17,-0.87,-3.5,12.32,-15.12
11180,-0.38,-0.15,-0.84,-0.77,-7.07,2.38
11200,-0.41,-0.26,-0.94,1.61,1.05,10.64
11220,-0.38,-0.21,-0.96,4.76,11.76,7.0
11240,-0.37,-0.19,-0.89,10.22,24.78,11.83
11260,-0.33,-0.23,-0.84,13.79,8.4,8.96
11280,-0.34,-0.27,-0.91,7.21,-2.1,11.69
11300,-0.34,-0.29,-0.9,0.56,1.68,8.54
11320,-0.34,-0.27,-0.91,-3.99,-2.94,7.98
11340,-0.34,-0.27,-0.9,-6.79,1.47,5.18
11360,-0.33,-0.24,-0.86,-5.04,-4.2,1.12
11380,-0.33,-0.23,-0.89,-6.23,-13.16,-0.35
11400,-0.35,-0.23,-0.9,-2.94,-7.56,-2.59
11420,-0.38,-0.25,-0.94,-7.98,-14.49,-1.54
11440,-0.38,-0.21,-0.96,-10.29,1.96,2.59
11460,-0.36,-0.16,-0.87,-9.59,4.41,8.19
11480,-0.36,-0.13,-0.96,-14.35,-8.61,12.04
11500,-0.38,-0.18,-1.0,-6.16,22.05,7.21
11520,-0.29,-0.18,-0.77,9.87,33.39,-2.52
11540,-0.27,-0.2,-0.77,31.29,-5.74,-8.61
11560,-0.36,-0.29,-0.98,25.76,-6.23,-3.15
11580,-0.35,-0.28,-0.94,10.36,13.16,2.03
11600,-0.33,-0.24,-0.88,3.64,8.68,3.01
11620,-0.32,-0.23,-0.88,1.47,-2.38,1.96
11640,-0.35,-0.23,-0.93,-1.19,-10.78,4.41
11660,-0.35,-0.24,-0.93,-4.69,-6.37,6.65
11680,-0.34,-0.24,-0.91,-9.03,-5.74,5.67
11700,-0.33,-0.23,-0.9,-7.77,-3.99,1.33
11720,-0.34,-0.21,-0.91,-4.62,-4.2,0.91
11740,-0.34,-0.22,-0.91,-2.38,-0.21,0.21
11760,-0.35,-0.22,-0.89,2.87,-1.96,0.7
11780,-0.34,-0.23,-0.91,1.68,-2.45,-4.13
11800,-0.35,-0.22,-0.9,3.64,-0.77,-3.5
11820,-0.35,-0.24,-0.92,2.87,-1.89,-5.46
11840,-0.34,-0.22,-0.91,3.78,3.85,-5.74
11860,-0.33,-0.19,-0.89,3.85,-2.94,-7.14
11880,-0.34,-0.2,-0.94,1.19,-2.31,-1.68
11900,-0.34,-0.22,-0.9,4.13,6.58,-2.87
11920,-0.35,-0.25,-0.89,5.88,-1.54,1.47
11940,-0.35,-0.24,-0.92,-0.49,-1.54,7.14
11960,-0.35,-0.24,-0.93,-5.95,0.28,10.57
11980,-0.33,-0.22,-0.9,-10.22,0.63,11.13
12000,-0.35,-0.21,-0.92,-15.4,-9.94,13.44
12020,-0.35,-0.21,-0.93,-16.52,-2.94,11.83
12040,-0.33,-0.21,-0.88,-13.3,-3.78,8.19
12060,-0.34,-0.2,-0.91,-6.93,-8.61,6.23
12080,-0.36,-0.19,-0.93,-4.2,-3.29,3.36
12100,-0.36,-0.17,-0.92,-2.94,1.47,5.32
12120,-0.35,-0.18,-0.91,-1.61,-0.98,4.41
12140,-0.36,-0.19,-0.94,-3.01,2.73,1.26
12160,-0.34,-0.21,-0.88,-1.26,4.06,-0.42
12180,-0.36,-0.18,-0.93,-5.67,-4.34,0.56
12200,-0.36,-0.19,-0.95,-17.92,-7.56,6.02
12220,-0.35,-0.15,-0.92,-24.36,-9.66,13.51
12240,-0.33,-0.19,-0.95,-36.05,-22.68,11.48
12260,-0.4,-0.15,-1.01,-48.86,-19.53,18.76
12280,-0.43,-0.16,-1.01,-60.76,-2.66,28.49
12300,-0.38,-0.13,-0.95,-63.49,20.3,23.73
12320,-0.34,-0.08,-0.86,-55.23,19.67,11.06
12340,-0.32,-0.02,-0.82,-37.52,7.98,3.92
12360,-0.32,0.01,-0.86,-29.75,-7.49,4.27
12380,-0.36,0.04,-0.96,-28.14,-4.97,4.27
12400,-0.29,-0.1,-0.85,-14.91,12.46,-7.56
12420,-0.33,0.02,-0.85,15.61,4.76,-26.46
12440,-0.31,0.04,-0.9,29.96,-3.78,-33.67
12460,-0.34,-0.03,-0.98,31.15,-2.66,-39.27
12480,-0.36,-0.05,-0.95,26.04,7.0,-25.62
12500,-0.37,-0.09,-0.91,15.33,1.05,-15.33
12520,-0.37,-0.1,-0.94,3.57,-3.99,-4.27
12540,-0.36,-0.08,-0.95,-10.36,-2.73,4.34
12560,-0.37,-0.07,-0.94,-17.43,-6.79,9.17
12580,-0.37,-0.05,-0.94,-19.6,-6.93,14.14
12600,-0.35,-0.04,-0.94,-23.38,-4.06,15.54
12620,-0.36,-0.02,-0.93,-21.56,-0.35,15.89
12640,-0.34,-0.03,-0.92,-18.06,0.35,8.54
12660,-0.34,-0.01,-0.91,-12.39,0.91,5.67
12680,-0.33,-0.01,-0.89,-6.09,-17.43,0.28
12700,-0.34,0.01,-0.91,-3.78,-5.18,2.52
12720,-0.34,-0.01,-0.91,-0.7,-4.27,-0.91
12740,-0.35,-0.0,-0.91,4.06,-4.13,-1.26
12760,-0.36,-0.0,-0.91,6.51,-4.13,-0.91
12780,-0.37,-0.01,-0.93,7.98,-5.04,1.05
12800,-0.37,-0.02,-0.95,6.65,-2.1,1.12
12820,-0.36,-0.01,-0.94,5.74,-2.59,3.29
12840,-0.37,-0.01,-0.95,4.34,0.14,4.9
12860,-0.36,-0.02,-0.93,3.78,0.7,3.71
12880,-0.36,-0.02,-0.93,2.59,-0.98,3.99
12900,-0.36,-0.02,-0.92,1.47,-1.19,2.03
12920,-0.36,-0.02,-0.93,2.03,0.14,2.38
12940,-0.36,-0.02,-0.92,3.01,-0.21,1.96
12960,-0.36,-0.02,-0.92,3.71,1.33,1.33
12980,-0.36,-0.01,-0.93,2.45,0.49,1.82
13000,-0.37,-0.01,-0.94,3.64,5.04,5.18
13020,-0.35,-0.02,-0.91,4.06,2.59,4.76
13040,-0.36,-0.01,-0.93,3.36,-0.42,3.78
13060,-0.36,-0.01,-0.93,3.08,1.05,6.86
13080,-0.39,0.01,-0.94,-0.63,-0.63,11.97
13100,-0.37,0.0,-0.96,-2.45,3.92,14.84
13120,-0.38,-0.0,-0.94,-6.16,5.67,26.81
13140,-0.38,-0.0,-0.95,-11.34,3.15,29.96
13160,-0.35,0.01,-0.95,-12.53,8.54,27.02
13180,-0.33,0.02,-0.91,-20.86,-0.91,29.12
13200,-0.34,-0.01,-0.97,-14.91,10.15,24.92
13220,-0.32,0.01,-0.95,-9.24,14.63,15.19
13240,-0.31,0.03,-0.93,-4.13,14.77,10.43
13260,-0.31,0.02,-0.94,-3.43,7.56,1.68
13280,-0.34,0.04,-0.96,0.07,4.06,-2.38
13300,-0.31,0.01,-0.91,0.42,2.38,-8.12
13320,-0.28,0.01,-0.94,-5.74,-4.97,-11.76
13340,-0.32,0.04,-0.96,-16.1,-4.48,-10.36
13360,-0.33,0.03,-0.95,-16.66,2.73,-11.41
13380,-0.32,0.07,-0.93,-15.89,0.91,-9.38
13400,-0.31,0.07,-0.94,-14.56,1.4,-5.11
13420,-0.33,0.07,-0.97,-17.92,6.58,-2.24
13440,-0.32,0.07,-0.93,-18.62,10.43,1.05
13460,-0.32,0.1,-0.95,-18.41,7.21,2.31
13480,-0.33,0.1,-0.94,-16.59,11.83,10.08
13500,-0.31,0.09,-0.93,-17.08,11.41,9.03
13520,-0.29,0.11,-0.92,-14.28,7.7,5.39
13540,-0.29,0.11,-0.93,-15.33,5.88,4.41
13560,-0.31,0.13,-0.92,-10.99,5.53,10.57
13580,-0.3,0.14,-0.89,-14.56,-7.14,4.69
13600,-0.26,0.12,-0.91,-1.75,-1.82,-2.1
13620,-0.28,0.15,-0.92,0.28,-6.58,-2.1
13640,-0.3,0.16,-0.93,3.85,-1.33,2.1
13660,-0.25,0.11,-0.9,7.0,-6.16,-0.14
13680,-0.3,0.14,-0.96,12.25,2.31,4.62
13700,-0.27,0.1,-0.93,13.3,-0.84,0.49
13720,-0.27,0.09,-0.95,10.5,2.59,-0.91
13740,-0.28,0.08,-0.91,9.24,-4.06,6.93
13760,-0.28,0.05,-0.95,-1.05,-18.62,-6.02
13780,-0.3,0.1,-0.98,-5.67,-6.23,-5.25
13800,-0.32,0.12,-0.94,-7.14,-2.59,-2.38
13820,-0.3,0.13,-0.93,-5.11,-6.02,1.4
13840,-0.28,0.15,-0.92,-2.1,-3.5,-3.36
13860,-0.29,0.12,-0.94,-0.91,-4.76,0.84
13880,-0.3,0.12,-0.93,-1.96,-2.52,0.84
13900,-0.3,0.1,-0.92,-1.75,-2.45,2.73
13920,-0.3,0.11,-0.94,-2.31,-2.38,2.52
13940,-0.31,0.12,-0.95,-4.2,-2.03,-0.7
13960,-0.3,0.13,-0.93,-3.57,-1.26,-1.12
13980,-0.3,0.13,-0.93,-3.36,-1.96,-1.47
14000,-0.31,0.13,-0.95,-3.36,-0.84,2.24
14020,-0.31,0.13,-0.95,-2.17,1.96,4.34
14040,-0.3,0.13,-0.93,-2.38,4.27,4.06
14060,-0.3,0.14,-0.93,-0.91,-1.4,3.85
14080,-0.31,0.13,-0.94,-2.38,-0.28,4.97
14100,-0.29,0.13,-0.92,-3.64,-0.35,4.2
14120,-0.29,0.14,-0.91,-0.7,-2.94,-0.63
14140,-0.31,0.15,-0.93,1.4,-5.18,0.07
14160,-0.31,0.14,-0.95,0.84,-2.17,1.96
14180,-0.31,0.14,-0.95,-0.63,1.12,2.59
14200,-0.3,0.13,-0.92,0.56,-0.35,0.7
14220,-0.31,0.12,-0.93,0.56,-3.5,-0.91
14240,-0.31,0.14,-0.94,1.68,2.17,0.28
14260,-0.31,0.16,-0.94,-1.05,4.48,3.99
14280,-0.28,0.14,-0.9,1.61,0.84,1.75
14300,-0.29,0.13,-0.92,2.94,-7.56,-0.77
14320,-0.31,0.13,-0.95,3.92,-2.66,0.56
14340,-0.31,0.14,-0.96,1.75,1.82,3.92
14360,-0.29,0.13,-0.93,0.98,4.9,1.82
14380,-0.29,0.13,-0.92,-0.28,0.0,1.61
14400,-0.31,0.13,-0.96,-3.36,0.63,1.4
14420,-0.28,0.14,-0.93,-4.48,1.89,0.35
14440,-0.26,0.13,-0.89,-6.79,-8.47,-3.57
14460,-0.31,0.16,-0.94,0.49,-7.56,-3.85
14480,-0.31,0.16,-0.94,3.5,-1.4,-3.64
14500,-0.29,0.14,-0.89,7.42,-3.71,-1.61
14520,-0.28,0.09,-0.91,11.97,-13.37,-13.65
14540,-0.28,0.15,-0.97,5.6,-8.05,-26.67
14560,-0.28,0.14,-0.91,12.6,-3.5,-31.64
14580,-0.29,0.1,-0.91,18.83,-12.39,-33.74
14600,-0.32,0.09,-0.93,19.67,-14.56,-32.62
14620,-0.34,0.09,-0.94,19.04,-5.81,-25.76
14640,-0.34,0.09,-0.93,17.99,-0.63,-15.82
14660,-0.33,0.07,-0.93,18.27,-0.21,-11.41
14680,-0.34,0.07,-0.95,15.82,-1.61,-10.43
14700,-0.32,0.05,-0.94,17.08,4.62,-15.19
14720,-0.34,0.05,-0.91,23.87,3.85,-12.74
14740,-0.33,0.05,-0.92,26.04,3.78,-14.63
14760,-0.29,0.06,-0.87,35.21,4.27,-17.92
14780,-0.33,0.03,-0.91,42.28,-9.03,-13.44
14800,-0.36,-0.04,-0.96,41.09,-2.24,-8.47
14820,-0.33,-0.04,-0.92,39.97,4.41,-12.6
14840,-0.32,0.0,-0.9,39.13,-6.72,-9.38
14860,-0.36,-0.06,-0.94,40.39,-16.1,1.68
14880,-0.35,-0.1,-0.95,37.59,-3.92,1.96
14900,-0.31,-0.09,-0.92,34.79,-4.48,-0.91
14920,-0.33,-0.12,-0.94,30.31,-13.09,-4.55
14940,-0.33,-0.14,-0.93,31.22,-4.83,-7.63
14960,-0.33,-0.11,-0.94,32.2,-7.56,-7.28
14980,-0.35,-0.14,-0.94,25.41,-4.83,-1.75
15000,-0.35,-0.15,-0.93,22.75,-0.98,-0.84
15020,-0.34,-0.16,-0.94,22.4,-0.35,-0.98
15040,-0.35,-0.19,-0.93,20.86,4.06,0.77
15060,-0.33,-0.2,-0.92,17.85,9.45,-2.52
15080,-0.31,-0.17,-0.91,21.84,6.86,-6.02
15100,-0.34,-0.19,-0.94,22.75,8.96,-3.92
15120,-0.33,-0.21,-0.93,23.45,15.4,-7.14
15140,-0.31,-0.22,-0.91,23.59,23.31,-10.43
15160,-0.32,-0.18,-0.91,29.54,24.43,-5.81
15180,-0.3,-0.2,-0.91,24.43,22.82,0.56
15200,-0.3,-0.24,-0.91,18.55,18.69,-0.77
15220,-0.29,-0.3,-0.95,11.27,11.97,-0.84
15240,-0.27,-0.32,-0.93,8.68,12.81,-12.04
15260,-0.27,-0.25,-0.9,13.58,20.86,-18.48
15280,-0.26,-0.21,-1.0,21.98,15.75,-12.04
15300,-0.3,-0.23,-0.93,20.51,7.14,-1.89
15320,-0.28,-0.26,-0.96,20.09,15.47,1.89
15340,-0.25,-0.31,-0.89,22.26,22.54,7.91
15360,-0.24,-0.32,-0.9,17.71,4.55,4.62
15380,-0.24,-0.33,-0.95,15.47,8.4,7.35
15400,-0.23,-0.32,-0.92,10.92,7.98,6.72
15420,-0.21,-0.33,-0.92,8.61,4.34,4.97
15440,-0.22,-0.33,-0.93,6.93,0.0,1.96
15460,-0.2,-0.34,-0.94,5.25,6.44,-5.39
15480,-0.21,-0.25,-0.82,15.05,7.21,2.17
15500,-0.24,-0.42,-1.02,-7.56,-28.91,8.4
15520,-0.26,-0.36,-0.98,-18.97,10.22,3.43
15540,-0.21,-0.24,-0.79,-12.18,-3.99,6.3
15560,-0.24,-0.26,-0.9,-6.44,-26.46,7.49
15580,-0.29,-0.26,-0.95,-1.47,-8.47,17.43
15600,-0.24,-0.32,-0.92,6.65,-1.47,11.69
15620,-0.21,-0.28,-0.91,17.64,6.16,-4.13
15640,-0.21,-0.36,-0.9,29.61,2.87,-10.57
15660,-0.23,-0.39,-0.88,20.23,-12.46,-10.36
15680,-0.23,-0.34,-0.91,11.62,-13.72,-12.81
15700,-0.24,-0.3,-0.89,12.25,-8.82,-15.26
15720,-0.28,-0.32,-0.91,9.17,-16.17,-10.71
15740,-0.29,-0.38,-0.95,4.2,-10.15,-7.14
15760,-0.27,-0.33,-0.92,4.41,7.56,-6.58
15780,-0.22,-0.3,-0.87,4.2,5.46,-5.88
15800,-0.26,-0.3,-0.85,4.9,-1.4,-1.26
15820,-0.26,-0.38,-0.92,0.35,-13.58,7.0
15840,-0.25,-0.36,-0.91,-7.35,-5.39,3.64
15860,-0.26,-0.34,-0.91,-7.91,-5.04,1.61
15880,-0.27,-0.3,-0.9,-0.63,1.89,-3.92
15900,-0.26,-0.25,-0.89,-6.02,-8.12,9.17
15920,-0.25,-0.28,-0.9,-3.85,-4.76,13.02
15940,-0.26,-0.29,-0.91,-5.53,-9.73,12.81
15960,-0.26,-0.32,-0.92,-1.54,-7.91,11.34
15980,-0.29,-0.34,-0.92,5.04,0.77,11.41
16000,-0.29,-0.31,-0.87,13.3,5.39,11.2
16020,-0.29,-0.29,-0.87,20.58,-4.27,18.06
16040,-0.3,-0.3,-0.92,16.73,0.28,22.54
16060,-0.29,-0.36,-0.89,11.55,3.85,20.65
16080,-0.29,-0.39,-0.91,10.64,-0.28,15.19
16100,-0.27,-0.4,-0.9,8.47,5.67,8.05
16120,-0.28,-0.38,-0.88,4.34,5.39,1.89
16140,-0.29,-0.36,-0.91,2.1,2.87,0.63
16160,-0.32,-0.34,-0.92,-0.7,6.44,3.92
16180,-0.3,-0.35,-0.9,-3.5,9.52,8.75
16200,-0.28,-0.37,-0.88,-4.13,6.86,8.68
16220,-0.28,-0.37,-0.91,-3.85,-0.91,3.5
16240,-0.28,-0.34,-0.94,-4.76,10.5,-0.42
16260,-0.25,-0.32,-0.89,-2.87,13.16,-7.42
16280,-0.23,-0.31,-0.87,1.82,14.56,-17.43
16300,-0.29,-0.33,-0.91,0.56,13.93,-19.04
16320,-0.22,-0.35,-0.9,-7.7,13.58,-11.34
16340,-0.21,-0.38,-0.84,-12.74,4.55,-11.97
16360,-0.2,-0.34,-0.9,-1.19,-3.71,-18.62
16380,-0.2,-0.29,-0.91,7.91,-0.91,-18.62
16400,-0.23,-0.32,-0.99,10.57,4.69,-21.35
16420,-0.24,-0.36,-0.97,-17.36,16.87,-17.08
16440,-0.2,-0.4,-0.9,-8.19,14.14,-14.63
16460,-0.18,-0.34,-0.86,-7.84,5.81,-12.81
16480,-0.17,-0.32,-0.88,-12.88,-6.51,-5.67
16500,-0.16,-0.36,-0.94,-17.92,-9.94,-7.21
16520,-0.19,-0.36,-0.93,-14.28,-1.12,-5.67
16540,-0.13,-0.36,-0.9,-8.19,13.09,-14.42
16560,-0.12,-0.34,-0.82,2.73,4.62,-21.77
16580,-0.14,-0.28,-0.87,9.52,-3.71,-19.74
16600,-0.17,-0.37,-0.93,7.84,-10.99,-15.26
16620,-0.22,-0.39,-1.02,6.86,1.33,-27.37
16640,-0.17,-0.28,-0.91,11.41,13.09,-23.66
16660,-0.15,-0.32,-0.86,16.52,1.4,-12.32
16680,-0.18,-0.41,-0.91,8.96,-8.05,-14.91
16700,-0.21,-0.39,-0.95,2.66,-2.45,-8.54
16720,-0.19,-0.38,-0.93,-4.76,4.97,-8.47
16740,-0.16,-0.33,-0.92,-9.73,0.91,-4.97
16760,-0.14,-0.33,-0.92,-10.78,8.12,-0.07
16780,-0.15,-0.38,-0.88,-10.43,5.25,0.63
16800,-0.18,-0.33,-0.88,-10.64,3.29,-3.57
16820,-0.12,-0.27,-0.88,-7.63,-6.02,-0.98
16840,-0.19,-0.33,-0.94,-8.12,-16.31,8.33
16860,-0.19,-0.34,-0.96,-8.26,1.19,13.51
16880,-0.16,-0.32,-0.91,-8.12,-7.0,12.67
16900,-0.17,-0.29,-0.97,-10.99,-8.68,20.09
16920,-0.18,-0.29,-0.91,-14.14,0.28,27.51
16940,-0.15,-0.28,-0.87,-10.29,-2.66,29.82
16960,-0.16,-0.3,-0.94,-11.76,-8.12,32.69
16980,-0.16,-0.28,-0.93,-14.07,1.75,29.12
17000,-0.18,-0.25,-0.92,-7.98,-0.84,32.13
17020,-0.2,-0.37,-0.96,-11.27,-6.44,27.65
17040,-0.25,-0.33,-0.95,-9.94,-8.12,20.16
17060,-0.22,-0.23,-0.92,-8.61,-13.58,20.51
17080,-0.18,-0.25,-0.92,-14.28,-25.27,18.55
17100,-0.24,-0.28,-0.98,-15.05,-24.57,14.35
17120,-0.26,-0.28,-0.95,-6.02,-1.4,11.97
17140,-0.19,-0.27,-0.86,5.04,-5.88,1.4
17160,-0.21,-0.27,-0.96,14.91,-9.87,-21.21
17180,-0.24,-0.22,-0.91,25.83,2.17,-10.92
17200,-0.26,-0.32,-0.92,14.28,-17.5,-7.0
17220,-0.27,-0.3,-0.98,3.71,-4.9,-9.59
17240,-0.21,-0.23,-0.92,-0.98,6.58,-6.58
17260,-0.22,-0.22,-0.91,-6.02,-3.08,4.27
17280,-0.26,-0.28,-0.92,-2.52,3.78,-5.39
17300,-0.21,-0.26,-0.87,9.24,11.76,-10.57
17320,-0.22,-0.27,-0.87,12.11,-9.8,-11.97
17340,-0.23,-0.25,-0.89,11.83,-4.27,-4.69
17360,-0.24,-0.3,-0.92,-8.4,-40.74,14.56
17380,-0.38,-0.43,-1.1,-32.76,-28.35,16.59
17400,-0.28,-0.35,-1.0,-35.56,7.0,-1.47
17420,-0.22,-0.22,-0.9,-22.89,-2.1,-15.33
17440,-0.21,-0.23,-0.92,-4.9,4.34,-25.48
17460,-0.22,-0.22,-0.84,19.74,18.48,-32.41
17480,-0.17,-0.25,-0.78,18.55,-9.94,-16.87
17500,-0.32,-0.34,-1.01,4.55,-22.26,0.21
17520,-0.3,-0.24,-1.0,-3.22,15.89,5.81
17540,-0.23,-0.19,-0.88,-4.62,21.42,9.24
17560,-0.26,-0.28,-0.88,-8.68,-12.18,10.78
17580,-0.3,-0.31,-1.05,-10.08,3.01,-10.99
17600,-0.23,-0.23,-0.93,-0.49,33.04,-9.94
17620,-0.26,-0.24,-0.8,9.52,22.68,-4.2
17640,-0.19,-0.31,-0.78,11.27,-3.85,0.28
17660,-0.2,-0.35,-1.03,-9.1,-40.46,-10.36
17680,-0.32,-0.26,-1.1,-20.86,1.26,-6.93
17700,-0.21,-0.22,-0.95,-19.53,18.9,-10.71
17720,-0.26,-0.29,-0.94,-26.53,1.05,-2.94
17740,-0.24,-0.3,-0.99,-33.25,4.48,-2.87
17760,-0.21,-0.22,-0.99,-13.44,31.43,-15.4
17780,-0.21,-0.16,-0.99,2.52,45.71,-4.34
17800,-0.12,-0.15,-0.87,7.28,38.5,17.5
17820,-0.17,-0.27,-0.9,14.63,-1.96,25.27
17840,-0.1,-0.23,-0.94,11.2,20.37,23.8
17860,-0.12,-0.18,-0.9,27.51,8.68,31.22
17880,-0.23,-0.19,-1.07,26.04,-11.48,27.79
17900,-0.25,-0.17,-1.09,40.95,12.39,21.35
17920,-0.27,-0.26,-0.95,28.35,49.14,17.92
17940,-0.18,-0.37,-0.64,0.14,34.09,9.38
17960,0.08,-0.27,-0.81,-27.23,-39.27,-17.99
17980,-0.23,-0.05,-0.94,-30.38,-14.28,-6.79
18000,-0.07,-0.16,-0.83,-28.35,-39.76,10.22
18020,-0.18,-0.3,-0.9,-30.52,-74.06,-16.59
18040,-0.21,-0.26,-1.21,-36.82,-46.06,-5.32
18060,-0.24,-0.22,-1.0,-11.76,13.65,-21.0
18080,-0.12,-0.14,-0.85,5.88,-35.49,-28.98
18100,-0.23,-0.15,-0.98,13.58,-39.97,-26.74
18120,-0.25,-0.17,-0.97,-0.63,-28.42,-3.29
18140,-0.3,-0.3,-0.91,0.98,5.53,12.6
18160,-0.25,-0.23,-0.83,1.26,-5.32,7.14
18180,-0.16,-0.16,-0.89,2.8,-28.14,-5.39
18200,-0.23,-0.16,-0.96,14.77,-21.84,-10.01
18220,-0.31,-0.15,-0.88,36.19,-7.7,0.28
18240,-0.27,-0.21,-0.84,39.41,-35.07,2.8
18260,-0.25,-0.24,-1.04,22.12,-37.73,-4.06
18280,-0.34,-0.34,-0.98,24.85,-4.83,-19.25
18300,-0.29,-0.27,-1.03,14.49,8.4,0.77
18320,-0.28,-0.38,-0.86,-4.97,-3.71,23.38
18340,-0.43,-0.51,-1.01,-32.06,-27.3,-0.56
18360,-0.33,-0.31,-1.02,-41.44,5.46,2.38
18380,-0.32,-0.24,-0.91,-52.99,-5.39,6.93
18400,-0.3,-0.18,-0.97,-53.9,-9.59,-2.03
18420,-0.33,-0.06,-0.88,-39.9,8.68,7.63
18440,-0.25,-0.1,-0.84,-34.58,-21.49,14.56
18460,-0.37,-0.18,-0.97,-33.95,-27.09,23.8
18480,-0.36,-0.19,-1.01,-33.74,-1.4,21.0
18500,-0.32,-0.15,-0.92,-30.03,10.01,15.26
18520,-0.3,-0.12,-0.88,-29.4,-3.08,9.52
18540,-0.31,-0.09,-0.88,-24.22,-10.36,3.99
18560,-0.29,-0.08,-0.89,-15.82,-6.72,-3.99
18580,-0.31,-0.07,-0.9,-11.34,-13.79,-8.33
18600,-0.36,-0.05,-0.91,-9.03,-15.54,3.92
18620,-0.35,-0.09,-0.95,-8.54,-11.2,6.65
18640,-0.38,-0.06,-0.92,-9.73,-8.05,9.73
18660,-0.34,-0.09,-1.01,-8.26,-0.63,15.75
18680,-0.43,-0.07,-0.97,-10.57,6.86,9.38
18700,-0.28,-0.03,-0.92,-3.08,14.98,5.88
18720,-0.32,-0.07,-0.81,0.14,-8.33,3.85
18740,-0.35,-0.05,-0.92,0.21,-11.83,4.97
18760,-0.31,-0.04,-0.93,7.91,-9.24,8.61
18780,-0.3,-0.04,-0.91,14.77,-3.71,2.52
18800,-0.24,-0.06,-0.93,15.82,-13.86,-11.97
18820,-0.31,-0.04,-0.96,13.23,-0.35,-1.12
18840,-0.31,0.05,-0.75,32.55,7.28,14.0
18860,-0.4,-0.1,-0.77,9.31,-79.87,59.92
18880,-0.56,-0.24,-1.26,-14.28,-74.97,40.04
18900,-0.5,-0.17,-1.22,-16.24,25.55,12.11
18920,-0.37,0.0,-0.86,-14.63,38.85,7.91
18940,-0.35,-0.03,-0.76,-12.95,3.15,8.26
18960,-0.36,-0.06,-0.85,-7.49,-9.24,2.45
18980,-0.39,-0.07,-0.87,-3.5,-8.68,4.2
19000,-0.38,-0.08,-0.9,-5.81,-11.97,1.89
19020,-0.4,-0.06,-0.91,-3.08,-4.06,-2.8
19040,-0.41,-0.04,-0.9,-5.04,-10.92,-6.86
19060,-0.42,-0.02,-0.92,-6.72,-7.91,-8.96
19080,-0.41,-0.03,-0.93,-10.01,-12.04,-15.05
19100,-0.4,-0.02,-0.95,-8.05,-0.14,-13.65
19120,-0.42,-0.01,-0.89,-5.04,0.7,-17.43
19140,-0.39,0.02,-0.89,-4.9,-7.7,-11.9
19160,-0.41,-0.03,-0.91,-6.79,-16.52,-6.72
19180,-0.45,-0.05,-0.91,-8.96,-10.99,-5.88
19200,-0.42,0.03,-0.9,-14.56,0.84,14.56
19220,-0.41,-0.02,-0.8,-13.23,-5.6,15.54
19240,-0.43,0.02,-0.9,-2.94,-21.21,-0.07
19260,-0.47,0.05,-0.92,4.62,-6.44,0.28
19280,-0.45,0.0,-0.85,6.72,-5.81,1.61
19300,-0.44,-0.03,-0.86,13.16,-13.65,-3.99
19320,-0.47,-0.03,-0.91,13.23,-10.64,-4.83
19340,-0.47,0.01,-0.89,18.13,-2.38,-1.33
19360,-0.49,0.01,-0.98,15.96,2.03,3.71
19380,-0.46,0.01,-0.92,20.16,28.49,6.93
19400,-0.43,-0.04,-0.81,26.18,24.36,13.23
19420,-0.42,-0.06,-0.82,23.24,2.24,16.52
19440,-0.36,-0.13,-0.94,14.28,-7.84,9.66
19460,-0.4,-0.09,-0.95,16.8,9.24,3.43
19480,-0.4,-0.11,-0.87,12.88,13.02,9.66
19500,-0.39,-0.12,-0.89,5.81,-6.16,3.29
19520,-0.41,-0.09,-0.94,6.09,0.07,-0.91
19540,-0.42,-0.06,-0.91,7.0,4.69,-2.52
19560,-0.4,-0.09,-0.91,0.0,-0.28,5.32
19580,-0.46,-0.13,-0.96,-7.77,0.14,9.52
19600,-0.42,-0.11,-0.95,-8.96,16.52,10.92
19620,-0.38,-0.09,-0.87,-6.58,17.5,9.38
19640,-0.38,-0.07,-0.88,-6.58,4.2,4.69
19660,-0.39,-0.06,-0.91,0.07,8.12,-2.94
19680,-0.35,-0.08,-0.91,1.82,9.66,-10.5
19700,-0.37,-0.05,-0.91,9.45,15.96,-8.89
19720,-0.36,-0.06,-0.86,16.38,12.67,-10.71
19740,-0.35,-0.07,-0.92,16.03,0.21,-13.23
19760,-0.37,-0.13,-0.94,7.63,-2.87,-12.81
19780,-0.39,-0.07,-0.92,9.17,6.44,-10.29
19800,-0.35,-0.12,-0.92,-9.1,-10.22,-0.42
19820,-0.4,-0.14,-1.03,-15.96,14.98,-6.93
19840,-0.36,-0.04,-0.89,-5.74,21.21,-5.81
19860,-0.34,0.02,-0.81,3.64,-0.91,5.88
19880,-0.36,-0.07,-0.9,3.15,-23.38,11.9
19900,-0.41,-0.11,-1.01,2.87,-6.86,5.11
19920,-0.4,-0.07,-0.95,3.08,14.28,7.07
19940,-0.36,-0.05,-0.86,3.64,10.78,14.35
19960,-0.36,-0.09,-0.93,-2.52,-10.08,9.03
19980,-0.38,-0.07,-0.99,-3.08,12.04,5.39
20000,-0.35,-0.08,-0.88,-7.28,8.4,11.69
20020,-0.36,-0.07,-0.95,-8.05,1.26,8.89
20040,-0.35,-0.07,-0.9,1.26,13.44,3.85
20060,-0.34,-0.02,-0.89,8.61,6.37,8.75
20080,-0.33,-0.08,-0.92,8.75,-0.35,11.27
20100,-0.37,-0.1,-0.95,7.56,4.55,3.99
20120,-0.34,-0.13,-0.95,2.45,5.67,-1.54
20140,-0.34,-0.11,-0.92,0.98,8.19,-3.71
20160,-0.33,-0.06,-0.9,1.75,1.12,-5.32
20180,-0.34,-0.03,-0.9,2.52,-1.54,2.24
20200,-0.35,-0.06,-0.92,7.77,-0.77,6.16
20220,-0.35,-0.06,-0.94,11.06,-1.12,0.28
20240,-0.33,-0.11,-0.96,8.61,3.15,-1.47
20260,-0.33,-0.12,-0.92,10.99,9.31,-12.95
20280,-0.31,-0.07,-0.89,14.49,5.32,-12.32
20300,-0.33,-0.04,-0.9,18.48,-4.9,-5.39
20320,-0.34,-0.06,-0.93,7.28,-13.02,11.62
20340,-0.38,-0.16,-1.01,-15.19,-18.48,16.8
20360,-0.39,-0.16,-1.04,-23.73,13.58,10.92
20380,-0.34,-0.08,-0.88,-20.79,23.8,12.53
20400,-0.29,-0.03,-0.88,-13.44,5.67,7.84
20420,-0.31,-0.06,-0.9,-4.97,-5.74,1.26
20440,-0.32,-0.09,-0.94,3.5,-1.26,-4.97
20460,-0.33,-0.04,-0.92,4.13,-3.85,3.22
20480,-0.34,-0.08,-0.96,0.63,-4.2,1.54
20500,-0.33,-0.06,-0.96,6.09,7.28,-1.26
20520,-0.32,-0.06,-0.91,10.43,9.31,-2.38
20540,-0.32,-0.02,-0.9,17.64,7.35,1.47
20560,-0.33,-0.06,-0.9,23.1,3.01,16.45
20580,-0.34,-0.08,-0.98,24.64,1.75,9.45
20600,-0.31,-0.06,-0.97,33.39,21.28,8.75
20620,-0.29,-0.1,-0.92,29.75,19.32,4.97
20640,-0.27,-0.11,-0.95,15.4,-2.03,3.5
20660,-0.3,-0.1,-0.98,11.69,14.28,1.75
20680,-0.34,-0.18,-0.91,-1.89,7.14,21.49
20700,-0.33,-0.22,-1.01,-17.85,-1.47,20.58
20720,-0.36,-0.15,-1.04,-32.27,10.78,13.93
20740,-0.26,-0.08,-0.94,-29.05,25.13,10.01
20760,-0.22,-0.08,-0.85,-19.81,10.92,4.55
20780,-0.24,-0.08,-0.87,-0.07,-0.98,-1.89
20800,-0.27,-0.12,-0.93,3.36,-1.33,1.68
20820,-0.29,-0.06,-1.01,1.19,2.45,-2.31
20840,-0.26,-0.03,-0.98,8.26,23.38,-1.47
20860,-0.25,-0.06,-0.88,14.21,12.25,-2.66
20880,-0.27,-0.09,-0.91,14.91,-5.67,5.11
20900,-0.29,-0.11,-1.03,10.71,-4.76,1.12
20920,-0.28,-0.1,-0.97,15.54,21.42,-0.35
20940,-0.22,-0.09,-0.91,28.42,25.2,8.05
20960,-0.21,-0.07,-0.88,24.36,-1.82,-8.75
20980,-0.24,-0.22,-0.93,12.88,-20.23,-3.64
21000,-0.33,-0.15,-0.98,5.04,-12.53,9.52
21020,-0.24,-0.11,-0.95,-2.31,-5.39,12.04
21040,-0.26,-0.2,-1.04,-9.66,-8.4,-5.88
21060,-0.25,-0.09,-0.94,-11.55,18.48,-1.89
21080,-0.3,-0.17,-0.85,-28.42,-28.35,16.1
21100,-0.32,-0.17,-1.09,-41.02,-25.34,15.61
21120,-0.27,-0.09,-0.99,-37.31,21.35,15.4
21140,-0.21,-0.05,-0.85,-29.82,3.5,7.49
21160,-0.21,-0.05,-0.9,-20.58,-15.82,4.48
21180,-0.26,-0.06,-0.97,-16.17,-16.45,0.21
21200,-0.27,-0.04,-0.96,-11.62,-2.59,0.0
21220,-0.26,-0.05,-0.93,-10.43,-11.41,-4.97
21240,-0.29,-0.02,-0.97,-8.82,-10.22,-5.25
21260,-0.3,-0.02,-0.97,-10.71,-7.98,-4.83
21280,-0.29,0.0,-0.94,-6.02,0.21,-2.8
21300,-0.29,-0.01,-0.92,-7.49,-10.43,1.82
21320,-0.3,-0.03,-0.98,-6.79,-6.09,-0.84
21340,-0.29,-0.01,-0.92,-1.05,1.19,-2.73
21360,-0.29,-0.04,-0.91,3.15,-6.44,-2.45
21380,-0.29,-0.06,-0.96,6.93,-6.86,-15.47
21400,-0.29,-0.03,-0.98,3.71,17.64,-18.34
21420,-0.27,-0.02,-0.92,0.28,-3.22,-28.14
21440,-0.25,0.02,-0.95,1.33,-3.64,-12.88
21460,-0.32,0.07,-0.92,2.59,-5.32,2.52
21480,-0.38,-0.04,-1.01,-0.91,-14.28,17.15
21500,-0.36,-0.01,-1.07,-8.54,12.18,12.95
21520,-0.29,-0.04,-0.92,-7.42,25.83,13.72
21540,-0.28,-0.03,-0.9,-7.0,8.96,13.3
21560,-0.25,-0.03,-0.92,-3.01,4.69,10.64
21580,-0.27,-0.04,-0.95,-7.14,-3.01,6.09
21600,-0.28,-0.01,-0.96,-8.75,2.03,7.28
21620,-0.27,-0.0,-0.96,-7.84,-0.07,6.3
21640,-0.28,0.02,-0.97,-6.86,1.54,6.86
21660,-0.27,0.01,-0.94,-5.88,3.43,8.4
21680,-0.27,-0.01,-0.94,-2.45,2.45,5.32
21700,-0.27,0.01,-0.94,-1.05,0.7,5.32
21720,-0.27,-0.01,-0.94,-1.19,-2.1,5.74
21740,-0.28,0.01,-0.96,0.98,0.7,4.34
21760,-0.26,0.03,-0.95,3.22,3.22,2.8
21780,-0.28,0.0,-0.97,-0.35,-0.07,2.66
21800,-0.3,0.05,-0.97,1.33,6.16,13.58
21820,-0.28,0.08,-0.98,0.77,11.9,15.12
21840,-0.26,0.07,-0.95,0.49,11.13,25.83
21860,-0.29,-0.01,-0.95,3.85,5.25,27.58
21880,-0.18,-0.02,-0.93,9.24,9.38,7.28
21900,-0.23,-0.03,-0.92,0.56,-11.9,6.16
21920,-0.26,-0.04,-1.02,-5.39,-9.45,-1.54
21940,-0.27,-0.01,-0.97,-0.84,11.13,-14.21
21960,-0.23,0.04,-0.91,-8.82,-2.66,-10.64
21980,-0.28,0.05,-1.0,-13.93,-9.45,-0.56
22000,-0.28,0.07,-0.98,-12.18,4.13,6.09
22020,-0.26,0.03,-0.94,-13.86,1.05,6.16
22040,-0.27,0.05,-0.94,-10.57,0.28,5.46
22060,-0.25,0.03,-0.94,-9.03,-1.19,1.68
22080,-0.24,0.03,-0.91,-6.16,-5.53,-4.55
22100,-0.24,0.04,-0.94,-0.07,-10.71,-9.1
22120,-0.26,0.03,-0.98,-0.91,-13.93,-14.49
22140,-0.26,0.05,-0.98,-1.33,-7.14,-20.16
22160,-0.25,0.01,-0.97,-8.47,-15.61,-29.47
22180,-0.28,0.06,-0.97,-12.67,-6.23,-26.74
22200,-0.29,0.06,-0.98,-24.29,-2.17,-19.04
22220,-0.27,0.08,-0.95,-14.91,11.13,-18.48
22240,-0.25,0.16,-0.92,-6.72,7.14,-13.79
22260,-0.31,0.14,-0.93,-5.53,-0.91,-5.6
22280,-0.29,0.06,-0.98,4.06,6.37,-2.87
22300,-0.3,0.05,-0.96,0.42,5.74,-0.28
22320,-0.28,0.06,-0.96,-0.77,10.36,-0.63
22340,-0.24,0.05,-0.93,-1.89,7.14,-4.55
22360,-0.25,0.04,-0.91,-0.28,1.75,-3.78
22380,-0.26,0.03,-0.96,-1.75,-5.39,-4.76
22400,-0.26,0.07,-0.95,-1.54,-0.7,-4.83
22420,-0.25,0.05,-0.95,-3.15,-4.9,-5.32
22440,-0.25,0.05,-0.95,-2.31,-1.61,-7.63
22460,-0.25,0.05,-0.94,0.0,-4.69,-8.4
22480,-0.26,0.06,-0.93,0.56,-6.72,-7.77
22500,-0.27,0.05,-0.95,2.45,-7.0,-7.14
22520,-0.26,0.03,-0.95,3.5,-7.49,-11.76
22540,-0.22,-0.03,-0.96,1.75,-8.47,-37.45
22560,-0.21,-0.01,-0.94,-1.12,-10.22,-51.1
22580,-0.21,0.04,-0.91,-4.34,-9.66,-54.04
22600,-0.3,0.12,-0.9,-3.01,-20.65,-43.68
22620,-0.34,0.22,-0.96,5.81,-10.22,-12.74
22640,-0.39,0.13,-1.03,-1.26,-21.14,6.37
22660,-0.4,0.03,-1.11,-8.47,7.98,12.25
22680,-0.33,0.06,-0.93,-9.8,24.22,9.59
22700,-0.27,0.03,-0.87,-10.22,4.76,11.2
22720,-0.27,0.04,-0.91,-6.02,0.63,7.91
22740,-0.28,0.06,-0.93,-2.17,0.7,9.38
22760,-0.29,0.07,-0.93,0.42,0.49,12.11
22780,-0.29,0.05,-0.96,-2.03,-4.13,13.16
22800,-0.28,0.04,-0.97,-5.25,1.12,8.47
22820,-0.28,0.05,-0.92,-4.62,1.47,4.34
22840,-0.27,0.08,-0.93,-3.57,-1.33,3.85
22860,-0.26,0.08,-0.92,1.26,-3.71,1.54
22880,-0.27,0.06,-0.96,7.35,-2.66,-7.21
22900,-0.24,0.04,-0.92,14.14,3.85,-22.12
22920,-0.24,-0.04,-1.05,10.36,8.68,-63.84
22940,-0.22,0.03,-0.9,21.0,38.15,-57.26
22960,-0.23,0.06,-0.83,5.74,-15.47,-49.56
22980,-0.36,0.21,-0.93,8.19,-22.68,-6.37
23000,-0.39,0.16,-1.02,-3.92,-34.09,28.28
23020,-0.43,-0.03,-1.19,-18.76,-8.05,26.6
23040,-0.35,0.01,-0.98,-22.75,32.48,23.24
23060,-0.24,0.04,-0.83,-21.63,14.0,20.93
23080,-0.23,0.05,-0.87,-16.38,-4.62,12.53
23100,-0.3,0.12,-0.92,-6.58,-2.38,17.64
23120,-0.27,0.09,-0.94,-9.24,-11.06,25.2
23140,-0.34,0.08,-1.02,-10.29,-3.01,24.43
23160,-0.29,0.09,-0.99,-12.6,15.05,21.28
23180,-0.26,0.08,-0.91,-12.81,10.01,17.78
23200,-0.25,0.09,-0.93,-14.0,3.57,15.75
23220,-0.26,0.13,-0.91,-6.3,7.98,12.32
23240,-0.25,0.14,-0.91,-1.19,2.45,10.57
23260,-0.24,0.13,-0.95,0.63,1.26,3.71
23280,-0.25,0.14,-0.95,1.26,1.12,1.47
23300,-0.25,0.11,-0.93,0.84,1.61,4.48
23320,-0.23,0.14,-0.97,0.7,1.75,0.35
23340,-0.28,0.14,-0.92,2.52,-0.07,3.71
23360,-0.25,0.13,-0.95,0.84,-5.95,7.84
23380,-0.29,0.13,-0.97,-3.29,-5.53,10.99
23400,-0.27,0.12,-0.98,-11.06,-3.01,14.63
23420,-0.27,0.13,-0.96,-11.62,1.89,14.14
23440,-0.25,0.15,-0.94,-13.51,0.42,16.03
23460,-0.25,0.15,-0.95,-16.1,-3.43,16.17
23480,-0.27,0.16,-0.96,-19.25,-2.17,21.14
23500,-0.26,0.16,-0.97,-22.26,1.54,20.44
23520,-0.25,0.17,-0.96,-22.47,8.96,20.44
23540,-0.24,0.17,-0.94,-23.66,8.4,17.99
23560,-0.23,0.19,-0.93,-22.68,9.66,16.38
23580,-0.23,0.2,-0.93,-14.14,13.86,12.74
23600,-0.22,0.21,-0.91,-5.04,15.96,11.62
23620,-0.2,0.23,-0.91,2.45,12.11,5.46
23640,-0.21,0.25,-0.94,10.08,10.85,3.92
23660,-0.21,0.24,-0.95,9.24,11.48,0.56
23680,-0.21,0.21,-0.94,13.51,16.03,-6.23
23700,-0.18,0.27,-0.91,25.55,18.13,-7.35
23720,-0.17,0.26,-0.94,26.74,13.44,-1.82
23740,-0.19,0.19,-0.97,22.89,11.69,4.06
23760,-0.19,0.16,-0.95,18.97,11.06,5.88
23780,-0.17,0.13,-0.96,12.81,10.64,6.51
23800,-0.16,0.14,-0.93,7.28,4.34,6.3
23820,-0.15,0.15,-0.94,1.68,-2.52,7.56
23840,-0.17,0.16,-0.96,-1.82,-4.62,12.74
23860,-0.18,0.16,-0.97,-6.23,-6.58,11.41
23880,-0.17,0.17,-0.96,-1.54,1.47,8.75
23900,-0.16,0.19,-0.96,5.18,1.96,7.56
23920,-0.16,0.21,-0.94,11.48,5.32,10.43
23940,-0.15,0.17,-0.94,13.37,3.08,10.78
23960,-0.17,0.14,-0.95,15.47,-1.54,6.86
23980,-0.15,0.13,-0.96,14.98,-1.47,2.17
24000,-0.15,0.14,-0.97,11.69,-1.4,3.85
24020,-0.15,0.12,-0.98,9.1,-1.89,2.73
24040,-0.16,0.11,-0.98,4.97,-3.22,0.56
24060,-0.16,0.13,-0.98,0.35,-2.66,-0.28
24080,-0.16,0.15,-0.97,-1.61,-2.24,2.24
24100,-0.19,0.17,-0.99,-2.94,-1.68,2.1
24120,-0.16,0.14,-0.98,-3.78,0.56,0.56
24140,-0.16,0.15,-0.95,-7.14,-0.28,7.07
24160,-0.16,0.15,-0.98,-7.21,-2.45,5.67
24180,-0.15,0.19,-0.97,-4.27,3.01,7.7
24200,-0.17,0.19,-0.97,-7.28,2.38,13.72
24220,-0.17,0.18,-0.97,-8.47,3.71,17.92
24240,-0.17,0.18,-0.97,-6.65,7.77,16.8
24260,-0.16,0.19,-0.96,-4.41,8.96,20.65
24280,-0.14,0.16,-0.94,-5.18,7.14,19.11
24300,-0.13,0.15,-0.97,-3.92,3.85,14.07
24320,-0.11,0.16,-0.96,4.83,11.48,7.98
24340,-0.13,0.2,-0.91,2.17,-0.14,7.84
24360,-0.07,0.11,-0.95,-0.84,-3.29,3.71
24380,-0.1,0.16,-0.96,3.36,3.71,2.52
24400,-0.09,0.14,-0.93,2.8,-2.38,-3.29
24420,-0.11,0.15,-0.94,1.19,-10.99,-7.21
24440,-0.12,0.16,-0.99,-1.75,-8.26,-7.77
24460,-0.12,0.18,-0.96,-1.26,-7.63,-10.99
24480,-0.12,0.19,-0.96,-0.14,-7.84,-10.71
24500,-0.13,0.18,-0.95,1.68,-7.77,-10.92
24520,-0.14,0.18,-0.96,3.85,-8.33,-13.51
24540,-0.14,0.19,-0.96,4.34,-4.2,-9.8
24560,-0.15,0.17,-0.95,4.97,-10.43,-10.71
24580,-0.16,0.18,-0.96,9.87,-5.81,-10.01
24600,-0.16,0.17,-0.97,8.82,-4.9,-10.01
24620,-0.16,0.15,-0.97,5.53,-5.18,-9.03
24640,-0.16,0.13,-0.95,7.56,-6.09,-13.93
24660,-0.15,0.19,-0.94,19.04,4.76,-13.51
24680,-0.16,0.17,-0.91,16.8,-11.41,-5.67
24700,-0.17,0.14,-1.0,20.3,-10.99,-8.26
24720,-0.17,0.13,-0.98,19.25,-5.11,-9.52
24740,-0.18,0.12,-0.97,14.63,-8.12,-7.35
24760,-0.19,0.14,-0.96,17.22,-0.98,-2.66
24780,-0.19,0.12,-0.98,11.9,-6.72,5.67
24800,-0.19,0.1,-0.98,9.38,-3.92,6.37
24820,-0.18,0.09,-0.98,9.52,-0.56,6.37
24840,-0.18,0.09,-0.95,7.28,-2.59,7.28
24860,-0.18,0.08,-0.98,5.53,-3.29,7.0
24880,-0.18,0.08,-0.97,4.83,0.14,6.09
24900,-0.17,0.08,-0.96,4.13,-0.77,3.22
24920,-0.17,0.07,-0.97,5.81,1.26,1.61
24940,-0.18,0.07,-0.96,2.87,0.35,0.35
24960,-0.19,0.08,-0.96,4.34,1.89,-0.91
24980,-0.18,0.1,-0.97,4.83,-2.03,-2.73
25000,-0.18,0.11,-0.98,8.4,2.66,-3.22
25020,-0.17,0.08,-0.96,8.4,1.82,-1.89
25040,-0.18,0.07,-0.97,9.03,1.89,-3.43
25060,-0.17,0.06,-0.97,8.61,3.15,-5.67
25080,-0.17,0.07,-0.95,10.78,3.08,-5.25
25100,-0.18,0.07,-0.97,10.36,-0.56,-7.7
25120,-0.17,0.06,-0.99,8.54,0.49,-9.45
25140,-0.17,0.06,-0.97,7.07,2.17,-10.29
25160,-0.17,0.07,-0.97,10.15,1.96,-7.84
25180,-0.16,0.07,-0.97,12.95,1.12,-7.42
25200,-0.16,0.04,-0.96,10.99,1.96,-7.07
25220,-0.16,0.02,-0.97,13.58,-0.35,-10.57
25240,-0.16,0.04,-0.97,15.82,1.47,-10.08
25260,-0.15,0.03,-0.99,9.66,-2.73,-7.07
25280,-0.18,0.01,-1.0,3.57,-2.45,-5.11
25300,-0.18,0.01,-0.98,1.89,2.03,-5.6
25320,-0.16,0.02,-0.97,1.05,0.98,-4.83
25340,-0.17,0.03,-0.97,2.52,2.87,-3.78
25360,-0.17,0.03,-0.96,3.36,0.14,-1.96
25380,-0.17,0.02,-0.99,3.01,-0.84,-3.08
25400,-0.16,0.01,-0.97,2.94,3.5,-3.85
25420,-0.15,-0.01,-0.98,1.68,2.73,-9.24
25440,-0.16,0.02,-0.97,4.13,6.09,-9.17
25460,-0.14,0.01,-0.96,3.85,0.21,-11.62
25480,-0.16,0.03,-0.98,8.89,6.44,-11.13
25500,-0.18,0.02,-0.97,5.04,0.91,-6.09
25520,-0.17,-0.02,-1.0,3.85,-0.7,-5.46
25540,-0.13,0.01,-0.98,8.19,12.88,-7.42
25560,-0.14,-0.03,-0.94,-0.35,-3.43,-6.51
25580,-0.16,-0.06,-1.01,-4.2,-2.31,-11.76
25600,-0.12,0.0,-0.96,-4.2,3.99,-11.62
25620,-0.11,-0.02,-0.94,-7.0,-6.79,-14.21
25640,-0.15,0.01,-1.0,-5.81,-5.11,-14.56
25660,-0.13,0.01,-1.01,-2.17,2.66,-12.81
25680,-0.15,0.06,-0.99,-0.35,3.92,-16.52
25700,-0.16,0.04,-0.97,0.14,-0.84,-8.47
25720,-0.17,0.01,-0.98,8.33,5.88,-9.52
25740,-0.13,-0.03,-0.96,0.77,3.57,-6.86
25760,-0.14,-0.04,-0.99,-6.51,-6.79,-12.53
25780,-0.15,-0.0,-0.98,-6.79,3.29,-11.69
25800,-0.12,-0.01,-0.92,-8.96,-3.08,-11.48
25820,-0.13,-0.02,-1.0,-10.85,-10.36,-17.78
25840,-0.16,0.04,-0.99,-12.04,-6.65,-22.54
25860,-0.16,0.01,-1.01,-7.91,-1.12,-27.51
25880,-0.15,0.07,-0.95,0.91,13.72,-18.83
25900,-0.13,-0.02,-0.93,-0.14,-1.12,-21.28
25920,-0.14,0.06,-0.97,2.59,-3.15,-12.95
25940,-0.18,0.06,-0.93,-9.73,-14.35,6.93
25960,-0.16,-0.0,-1.02,-20.72,-25.97,2.31
25980,-0.21,0.06,-1.05,-26.04,-18.69,-1.47
26000,-0.18,0.08,-0.99,-17.01,7.28,1.47
26020,-0.15,0.08,-0.89,-12.39,-7.21,7.84
26040,-0.15,0.08,-0.94,-2.38,-13.44,10.01
26060,-0.18,0.02,-0.98,-3.57,-21.77,4.27
26080,-0.2,0.04,-1.02,2.03,-7.21,-2.03
26100,-0.2,0.09,-0.96,4.34,-6.23,-0.7
26120,-0.19,0.11,-1.0,11.76,-2.66,-3.22
26140,-0.15,0.09,-0.93,23.73,10.5,-3.22
26160,-0.17,0.01,-0.92,25.13,-4.2,-1.47
26180,-0.18,-0.02,-1.0,16.52,-10.01,-9.24
26200,-0.17,-0.01,-1.0,11.34,-1.89,-17.29
26220,-0.2,0.07,-0.97,15.75,3.5,-13.23
26240,-0.2,0.13,-0.97,14.0,7.91,12.88
26260,-0.22,-0.03,-0.96,-2.31,-15.54,22.12
26280,-0.21,-0.04,-1.05,-3.22,-3.5,15.4
26300,-0.21,0.04,-0.95,-6.02,-2.73,16.8
26320,-0.2,0.04,-1.02,0.0,4.55,13.37
26340,-0.16,0.04,-0.93,9.31,9.87,9.94
26360,-0.15,-0.01,-0.93,15.05,0.14,1.19
26380,-0.17,-0.03,-0.96,11.34,-5.25,1.54
26400,-0.19,-0.01,-0.99,8.12,2.38,-2.03
26420,-0.19,0.02,-0.96,4.27,4.55,-1.33
26440,-0.19,0.03,-0.99,7.77,4.55,-4.34
26460,-0.15,0.01,-0.95,16.73,17.92,-2.03
26480,-0.18,-0.03,-0.93,10.15,-6.86,0.98
26500,-0.22,0.0,-1.03,5.18,-5.39,6.16
26520,-0.19,0.02,-0.99,1.26,1.82,14.63
26540,-0.2,-0.06,-0.98,-13.02,-10.78,13.09
26560,-0.16,-0.08,-0.99,-6.3,5.32,-0.77
26580,-0.14,0.02,-0.88,-1.68,-7.0,-0.49
26600,-0.17,0.02,-1.02,-5.46,-14.98,5.67
26620,-0.18,0.02,-1.0,4.97,3.99,4.97
26640,-0.19,0.03,-0.94,11.06,-1.54,4.69
26660,-0.18,0.03,-0.98,14.91,-5.32,1.89
26680,-0.16,0.03,-0.98,11.97,-4.69,8.19
26700,-0.19,0.03,-0.96,14.0,-5.53,8.4
26720,-0.16,0.02,-0.97,27.23,6.72,8.82
26740,-0.18,0.02,-0.93,29.54,1.26,15.54
26760,-0.16,-0.05,-1.03,23.66,-5.46,8.54
26780,-0.2,-0.06,-1.05,23.03,8.68,11.69
26800,-0.23,-0.04,-0.95,12.67,12.88,25.06
26820,-0.2,-0.19,-0.97,-2.94,-10.92,10.78
26840,-0.2,-0.13,-1.0,-5.18,4.2,1.54
26860,-0.19,-0.09,-0.93,-22.19,-9.8,16.45
26880,-0.21,-0.08,-0.98,-33.39,-14.63,23.24
26900,-0.18,-0.06,-0.99,-27.16,-4.41,16.94
26920,-0.16,0.0,-0.95,-20.16,-2.1,13.37
26940,-0.17,-0.02,-0.93,-14.07,-6.65,11.97
26960,-0.19,-0.02,-0.96,-8.54,-9.59,8.26
26980,-0.19,0.0,-0.98,-6.93,-5.46,4.62
27000,-0.19,0.02,-0.98,-5.81,-4.06,2.17
27020,-0.17,0.04,-0.98,0.42,-0.7,0.35
27040,-0.18,0.04,-0.96,2.66,-1.47,2.1
27060,-0.21,-0.0,-0.98,-2.45,-9.1,2.8
27080,-0.21,-0.0,-0.99,-3.08,-0.28,1.33
27100,-0.2,0.02,-0.95,-0.63,2.73,0.7
27120,-0.19,0.02,-0.95,2.1,-0.35,0.63
27140,-0.19,0.02,-0.97,3.64,-0.77,-0.49
27160,-0.21,0.02,-0.97,5.81,-0.49,-2.17
27180,-0.22,0.02,-0.97,10.64,6.02,-2.59
27200,-0.19,0.04,-0.98,18.2,4.9,-2.8
27220,-0.2,0.09,-0.99,24.15,15.54,6.58
27240,-0.2,-0.05,-0.96,9.38,-6.02,12.6
27260,-0.19,-0.08,-1.03,3.43,4.48,8.05
27280,-0.16,-0.07,-0.94,-5.88,-0.63,0.0
27300,-0.18,-0.03,-0.98,-12.25,-2.45,4.62
27320,-0.18,0.01,-0.96,-11.9,-2.03,3.92
27340,-0.2,0.0,-1.0,-17.99,-10.78,7.63
27360,-0.22,0.01,-1.02,-16.38,3.43,7.7
27380,-0.19,0.02,-0.94,-13.72,2.94,4.9
27400,-0.18,0.04,-0.96,-10.85,-0.7,3.15
27420,-0.18,0.03,-0.94,-6.58,0.84,1.75
27440,-0.19,0.02,-0.96,-3.92,-4.62,-0.98
27460,-0.19,0.04,-0.98,-2.45,-1.82,-0.21
27480,-0.18,0.04,-0.96,-0.21,-0.42,-0.7
27500,-0.19,0.03,-0.96,-0.7,-3.92,0.91
27520,-0.2,0.02,-0.99,-4.06,-6.23,0.35
27540,-0.19,0.02,-0.98,-5.6,0.0,0.07
27560,-0.18,0.04,-0.96,-5.6,-4.55,-3.57
27580,-0.18,0.03,-0.96,-8.33,-10.5,-3.92
27600,-0.2,0.05,-0.99,-10.64,-4.97,-4.2
27620,-0.19,0.04,-0.97,-15.12,-7.98,-2.03
27640,-0.19,0.06,-1.01,-11.06,-0.14,-4.83
27660,-0.18,0.11,-0.93,-7.0,2.73,-3.5
27680,-0.2,0.07,-0.97,-6.44,-4.2,0.42
27700,-0.22,0.06,-0.98,-5.88,-0.7,0.35
27720,-0.24,0.05,-0.99,-6.23,5.81,3.01
27740,-0.2,0.06,-0.93,-4.41,7.21,3.78
27760,-0.18,0.06,-0.95,-3.08,-1.26,0.35
27780,-0.2,0.06,-0.96,-5.04,-2.45,0.49
27800,-0.19,0.07,-0.97,-4.83,-0.98,1.05
27820,-0.19,0.08,-0.97,-7.0,-0.42,1.47
27840,-0.18,0.08,-0.95,-5.32,-1.96,0.35
27860,-0.19,0.09,-0.95,-2.31,-3.64,-2.73
27880,-0.19,0.09,-0.95,-2.52,-5.74,-3.85
27900,-0.2,0.08,-0.97,-3.08,-6.72,-3.01
27920,-0.2,0.07,-0.98,-0.21,-5.67,-7.42
27940,-0.18,0.07,-0.96,-1.75,-4.9,-12.95
27960,-0.19,0.06,-0.93,-1.82,-10.15,-20.3
27980,-0.18,0.08,-0.94,0.0,-14.21,-24.22
28000,-0.21,0.1,-0.96,1.96,-13.23,-16.45
28020,-0.24,0.14,-0.98,4.06,-6.37,-8.89
28040,-0.25,0.13,-1.01,-2.24,-9.17,-0.28
28060,-0.28,0.1,-0.99,-5.32,-3.43,7.07
28080,-0.25,0.1,-0.98,-4.69,4.55,7.0
28100,-0.22,0.08,-0.92,-3.57,3.29,8.54
28120,-0.22,0.09,-0.95,-4.9,-4.34,8.68
28140,-0.21,0.07,-0.95,-6.58,-5.81,8.82
28160,-0.22,0.09,-0.96,-3.5,-4.2,6.51
28180,-0.22,0.1,-0.95,-7.28,-5.67,9.1
28200,-0.23,0.11,-0.96,-9.03,-7.07,9.31
28220,-0.24,0.12,-0.97,-10.64,-10.29,12.04
28240,-0.24,0.11,-0.97,-13.65,-6.3,14.49
28260,-0.25,0.12,-0.96,-13.58,-3.99,15.75
28280,-0.23,0.12,-0.96,-12.18,0.98,15.54
28300,-0.23,0.12,-0.95,-11.9,2.59,11.76
28320,-0.24,0.17,-0.95,-7.98,7.63,10.29
28340,-0.26,0.23,-0.96,-2.8,8.4,24.64
28360,-0.22,0.24,-0.99,1.12,11.06,27.3
28380,-0.2,0.15,-0.96,-3.08,13.09,28.63
28400,-0.17,0.11,-0.9,15.05,18.06,9.59
28420,-0.12,0.11,-0.86,28.63,5.46,-2.03
28440,-0.17,0.08,-0.94,21.42,-12.81,-7.77
28460,-0.21,0.05,-1.01,8.33,-11.13,-8.33
28480,-0.23,0.1,-0.99,4.76,0.49,-10.92
28500,-0.2,0.15,-0.96,1.54,1.33,-7.49
28520,-0.2,0.13,-0.96,-0.77,-2.17,-3.15
28540,-0.21,0.14,-0.96,-0.91,-0.7,0.28
28560,-0.22,0.14,-0.98,-1.75,0.35,3.64
28580,-0.21,0.14,-0.96,-1.82,3.36,5.6
28600,-0.2,0.12,-0.94,1.89,1.54,1.54
28620,-0.2,0.14,-0.95,6.79,4.34,3.01
28640,-0.2,0.13,-0.96,7.77,2.1,2.52
28660,-0.21,0.15,-0.97,14.07,6.44,4.76
28680,-0.21,0.17,-0.99,21.7,12.32,6.09
28700,-0.22,0.19,-1.0,27.02,20.51,17.92
28720,-0.19,0.09,-0.97,17.57,14.07,22.96
28740,-0.16,0.01,-0.95,22.33,12.04,13.02
28760,-0.13,0.0,-0.94,18.2,10.29,7.0
28780,-0.12,-0.01,-0.94,3.29,-6.44,-0.7
28800,-0.14,0.02,-0.97,-1.26,-7.42,-10.57
28820,-0.16,0.08,-0.99,-6.16,-8.82,-5.53
28840,-0.18,0.11,-0.99,-7.28,-3.92,-3.78
28860,-0.18,0.12,-1.0,-4.69,0.98,-1.47
28880,-0.17,0.12,-0.96,-2.24,0.56,4.13
28900,-0.18,0.11,-0.97,-0.35,1.19,5.32
28920,-0.16,0.08,-0.95,2.73,1.75,3.99
28940,-0.15,0.08,-0.96,5.39,2.03,0.28
28960,-0.17,0.1,-0.96,13.02,5.74,1.26
28980,-0.19,0.11,-0.96,17.22,6.58,1.4
29000,-0.19,0.13,-1.0,25.97,20.23,7.0
29020,-0.18,0.12,-0.97,35.14,26.46,9.31
29040,-0.1,0.06,-0.98,29.47,19.18,18.83
29060,-0.11,-0.06,-0.98,15.47,-0.7,11.97
29080,-0.08,-0.12,-0.95,4.13,-6.86,-2.45
29100,-0.1,-0.05,-0.94,-8.89,-17.15,-7.07
29120,-0.12,0.0,-0.97,-20.02,-28.84,-7.21
29140,-0.15,0.05,-1.03,-21.49,-20.09,-7.77
29160,-0.18,0.09,-1.01,-20.93,-6.86,-0.84
29180,-0.16,0.11,-0.98,-20.02,-5.6,5.6
29200,-0.19,0.11,-0.98,-13.79,-3.99,9.73
29220,-0.15,0.1,-0.94,-6.72,-3.85,8.82
29240,-0.13,0.07,-0.94,-0.49,-7.98,1.82
29260,-0.17,0.07,-0.96,3.85,-7.07,-3.08
29280,-0.17,0.06,-0.96,3.15,-8.33,-3.43
29300,-0.17,0.08,-0.99,1.19,-6.44,-2.59
29320,-0.18,0.11,-1.01,-4.55,-7.91,0.98
29340,-0.23,0.18,-1.0,9.66,17.43,5.67
29360,-0.09,0.09,-0.85,26.95,6.51,-0.77
29380,-0.18,-0.03,-1.03,3.15,-22.33,-4.2
29400,-0.17,-0.05,-1.03,-6.65,0.35,-9.66
29420,-0.16,0.06,-0.92,-15.33,-8.75,-1.12
29440,-0.19,0.11,-0.96,-17.08,-17.78,-3.15
29460,-0.17,0.09,-0.99,-12.67,-13.86,-8.89
29480,-0.21,0.1,-0.99,-8.75,-3.64,-2.1
29500,-0.2,0.11,-0.97,-8.26,-4.76,0.98
29520,-0.18,0.09,-0.97,-8.12,-3.15,-2.87
29540,-0.2,0.09,-0.95,-7.84,-4.41,-2.1
29560,-0.2,0.11,-0.95,-11.34,-4.62,2.31
29580,-0.21,0.13,-0.98,-10.57,-6.72,2.94
29600,-0.2,0.13,-0.97,-7.7,-4.76,3.29
29620,-0.2,0.11,-0.94,-8.61,-2.94,1.33
29640,-0.19,0.08,-0.95,-6.37,-5.6,-3.92
29660,-0.22,0.14,-1.01,-8.26,-2.17,-3.71
29680,-0.22,0.16,-0.96,-5.53,5.67,-1.47
29700,-0.23,0.15,-0.92,-1.05,4.83,4.62
29720,-0.19,0.08,-1.01,1.47,-0.28,-19.32
29740,-0.19,0.12,-0.99,0.63,13.23,-15.47
29760,-0.17,0.14,-0.94,-1.82,4.41,-16.38
29780,-0.16,0.14,-0.92,-2.1,-3.36,-8.47
29800,-0.18,0.12,-0.96,-2.31,-4.48,-3.22
29820,-0.21,0.12,-0.97,-4.76,-1.75,0.77
29840,-0.2,0.14,-0.95,-2.66,1.19,7.35
29860,-0.19,0.13,-0.96,-1.19,-2.38,5.39
29880,-0.2,0.14,-0.97,1.47,1.47,4.41
29900,-0.19,0.14,-0.95,3.78,1.96,5.74
29920,-0.19,0.13,-0.94,7.28,-0.63,5.11
29940,-0.2,0.11,-0.95,7.63,-2.38,3.15
29960,-0.18,0.11,-0.97,9.1,-0.42,1.75
29980,-0.17,0.1,-0.97,4.76,-1.19,-0.28
30000,-0.2,0.11,-0.96,-0.91,-3.15,0.7
30020,-0.19,0.12,-0.95,1.26,-1.75,-1.4
30040,-0.18,0.11,-0.98,-0.21,-4.34,-1.68
30060,-0.2,0.14,-0.99,-2.24,1.26,1.75
30080,-0.2,0.14,-0.96,-2.31,1.05,10.36
30100,-0.19,0.12,-0.97,-3.92,0.0,11.41
30120,-0.19,0.09,-0.95,-6.86,-0.07,6.37
30140,-0.19,0.1,-0.96,-8.61,-2.1,5.74
30160,-0.18,0.14,-0.97,-8.26,-1.54,2.73
30180,-0.18,0.15,-0.96,-8.54,0.42,3.92
30200,-0.19,0.14,-0.96,-6.51,1.4,4.76
30220,-0.19,0.15,-0.96,-5.46,0.77,2.66
30240,-0.18,0.16,-0.95,-3.85,1.05,0.84
30260,-0.18,0.15,-0.95,0.28,1.12,-1.33
30280,-0.18,0.16,-0.94,1.47,-0.63,-1.19
30300,-0.19,0.16,-0.96,2.31,-0.42,-1.12
30320,-0.18,0.14,-0.95,3.78,0.98,-1.05
30340,-0.18,0.14,-0.96,1.05,-0.98,-0.35
30360,-0.18,0.14,-0.95,-1.05,-3.5,-0.28
30380,-0.19,0.16,-0.96,-0.84,-2.87,3.57
30400,-0.19,0.15,-0.96,-2.94,-3.64,5.39
30420,-0.18,0.14,-0.98,-1.54,-1.05,2.31
30440,-0.19,0.16,-0.96,-4.34,-0.77,7.0
30460,-0.17,0.14,-0.95,-5.46,-3.99,5.53
30480,-0.18,0.16,-0.96,-5.18,-3.57,3.15
30500,-0.2,0.17,-0.96,-4.62,-1.26,5.95
30520,-0.18,0.17,-0.95,-2.8,-1.61,5.95
30540,-0.19,0.17,-0.96,-3.08,-1.89,6.58
30560,-0.19,0.16,-0.95,-2.03,-2.94,4.62
30580,-0.19,0.18,-0.96,-3.22,-2.1,7.07
30600,-0.19,0.17,-0.95,-3.71,-0.49,7.91
30620,-0.18,0.18,-0.95,-3.71,-1.4,7.91
30640,-0.18,0.17,-0.96,-3.36,-1.12,7.28
30660,-0.19,0.2,-0.95,-2.1,-1.47,10.01
30680,-0.18,0.18,-0.95,0.21,0.56,11.83
30700,-0.17,0.17,-0.94,-1.19,-0.84,8.96
30720,-0.18,0.17,-0.95,-0.42,-2.03,6.3
30740,-0.19,0.18,-0.95,1.4,-1.54,2.94
30760,-0.17,0.18,-0.95,3.15,-1.89,0.21
30780,-0.18,0.18,-0.94,3.22,-3.08,0.49
30800,-0.19,0.18,-0.96,3.57,-2.73,0.0
30820,-0.18,0.18,-0.96,3.29,-2.73,0.63
30840,-0.18,0.18,-0.95,1.33,-4.41,2.1
30860,-0.19,0.17,-0.95,3.15,-5.04,1.47
30880,-0.19,0.17,-0.98,0.91,-2.87,1.4
30900,-0.19,0.17,-0.95,-0.56,1.26,3.64
30920,-0.18,0.16,-0.95,-0.49,-1.96,-0.91
30940,-0.18,0.18,-0.97,1.05,-0.56,-2.73
30960,-0.18,0.2,-0.95,5.25,2.87,-1.12
30980,-0.18,0.17,-0.93,3.71,-3.36,-1.54
31000,-0.19,0.16,-0.96,3.57,-2.52,-1.89
31020,-0.2,0.17,-0.96,2.59,-3.64,-3.99
31040,-0.19,0.17,-0.96,2.1,-0.98,-4.06
31060,-0.19,0.18,-0.95,1.12,-0.49,-1.05
31080,-0.19,0.17,-0.96,1.12,-2.59,-0.98
31100,-0.19,0.17,-0.95,0.84,-1.61,-2.17
31120,-0.18,0.17,-0.95,1.19,-1.75,-2.17
31140,-0.19,0.18,-0.96,2.03,-2.03,-2.73
31160,-0.19,0.17,-0.96,2.73,0.7,-0.56
31180,-0.19,0.17,-0.95,2.1,-3.36,-2.38
31200,-0.19,0.17,-0.95,3.36,-2.45,-3.01
31220,-0.19,0.17,-0.96,3.15,-4.13,-3.01
31240,-0.19,0.16,-0.97,1.47,-1.54,-2.66
31260,-0.19,0.17,-0.96,0.7,1.75,-1.19
31280,-0.19,0.19,-0.95,0.84,0.49,0.49
31300,-0.19,0.16,-0.94,3.5,-1.96,1.05
31320,-0.2,0.17,-0.98,3.15,0.14,-0.98
31340,-0.19,0.17,-0.95,1.54,4.41,3.43
31360,-0.17,0.15,-0.94,1.96,-2.31,-1.4
31380,-0.19,0.16,-0.96,1.82,-1.19,-0.77
31400,-0.19,0.16,-0.97,1.47,0.07,-2.03
31420,-0.19,0.16,-0.96,0.84,3.71,1.4
31440,-0.18,0.16,-0.94,0.84,1.26,-0.42
31460,-0.18,0.16,-0.96,2.73,-0.07,-0.49
31480,-0.19,0.15,-0.94,0.07,-0.07,0.84
31500,-0.19,0.15,-0.94,-0.63,-2.03,2.94
31520,-0.19,0.14,-0.95,-1.89,-5.67,4.41
31540,-0.19,0.17,-0.97,-6.23,-5.25,4.62
31560,-0.19,0.18,-0.97,-6.72,-1.61,5.25
31580,-0.18,0.18,-0.95,-4.69,-1.89,5.74
31600,-0.19,0.18,-0.96,-1.54,-2.38,3.85
31620,-0.19,0.18,-0.96,0.7,-3.01,1.75
31640,-0.18,0.18,-0.95,2.87,-1.54,2.66
31660,-0.19,0.17,-0.95,1.33,-2.59,3.08
31680,-0.18,0.17,-0.95,0.63,-2.66,3.08
31700,-0.19,0.17,-0.95,-1.47,-4.55,3.5
31720,-0.19,0.17,-0.94,-0.49,-3.78,6.37
31740,-0.19,0.17,-0.97,-0.07,-4.27,1.89
31760,-0.2,0.18,-0.97,-3.01,1.75,7.7
31780,-0.19,0.16,-0.94,-5.46,0.35,9.38
31800,-0.17,0.17,-0.93,-3.71,-4.2,3.15
31820,-0.19,0.18,-0.96,-1.54,-4.48,2.03
31840,-0.19,0.19,-0.96,0.35,-0.98,1.96
31860,-0.18,0.19,-0.94,-0.56,-2.45,2.73
31880,-0.19,0.18,-0.95,-0.56,-5.6,0.56
31900,-0.2,0.19,-0.96,0.0,-3.43,1.47
31920,-0.2,0.19,-0.95,-0.49,-2.94,3.64
31940,-0.2,0.19,-0.95,-1.33,-4.13,3.08
31960,-0.2,0.19,-0.96,-2.1,-2.94,2.66
31980,-0.2,0.19,-0.95,-2.45,-1.4,3.15
32000,-0.19,0.19,-0.94,-0.98,-1.47,1.75
32020,-0.2,0.19,-0.95,-0.35,-1.26,2.03
32040,-0.2,0.19,-0.95,0.84,0.0,1.68
32060,-0.2,0.19,-0.95,1.82,0.0,-1.05
32080,-0.2,0.2,-0.96,2.24,0.91,-1.33
32100,-0.18,0.19,-0.94,4.06,1.75,0.98
32120,-0.2,0.18,-0.94,2.38,-1.47,0.84
32140,-0.2,0.18,-0.96,0.56,-1.12,-1.12
32160,-0.19,0.19,-0.95,1.05,-1.54,-1.19
32180,-0.2,0.2,-0.97,0.63,-1.05,0.35
32200,-0.19,0.2,-0.95,1.05,0.84,0.14
32220,-0.18,0.19,-0.94,1.82,-1.12,0.07
32240,-0.2,0.19,-0.95,1.75,-1.96,-0.56
32260,-0.19,0.19,-0.96,1.89,-0.91,-0.77
32280,-0.19,0.18,-0.95,1.68,-0.98,-1.26
32300,-0.19,0.18,-0.96,1.61,-0.49,-1.47
32320,-0.2,0.18,-0.95,0.56,-0.35,-1.89
32340,-0.19,0.18,-0.95,0.14,-0.07,-1.96
32360,-0.19,0.19,-0.96,1.33,0.0,-1.61
32380,-0.19,0.19,-0.95,-0.14,-0.35,-1.26
32400,-0.19,0.18,-0.96,0.21,0.35,-2.17
32420,-0.18,0.18,-0.94,0.7,-0.42,-3.5
32440,-0.18,0.18,-0.94,1.54,-1.4,-5.81
32460,-0.19,0.19,-0.96,3.22,-1.82,-7.14
32480,-0.18,0.16,-0.96,-1.33,-2.87,-9.66
32500,-0.18,0.16,-0.93,-0.63,-2.8,-12.11
32520,-0.19,0.17,-0.9,0.77,-8.54,-14.42
32540,-0.22,0.2,-0.98,2.03,-8.89,-14.42
32560,-0.21,0.19,-0.94,5.6,-3.43,-13.93
32580,-0.2,0.18,-0.92,9.59,-6.02,-14.35
32600,-0.22,0.19,-0.94,10.64,-10.36,-14.56
32620,-0.23,0.2,-0.96,20.86,-7.0,-17.01
32640,-0.23,0.2,-0.94,19.74,-8.68,-7.77
32660,-0.25,0.18,-0.99,14.35,-9.03,1.33
32680,-0.26,0.17,-0.99,23.94,10.71,6.44
32700,-0.23,0.16,-0.92,22.33,6.44,10.71
32720,-0.21,0.11,-0.97,19.04,0.91,6.93
32740,-0.23,0.1,-0.97,12.95,2.45,8.05
32760,-0.22,0.09,-0.97,9.52,2.45,9.24
32780,-0.19,0.09,-0.94,6.37,0.28,3.71
32800,-0.2,0.09,-0.95,3.36,-2.03,1.26
32820,-0.2,0.07,-0.96,-1.05,-5.88,-3.85
32840,-0.22,0.07,-0.99,-6.79,-2.94,-6.16
32860,-0.19,0.08,-0.95,-9.1,-1.12,-10.92
32880,-0.19,0.1,-0.93,-8.19,-2.52,-14.07
32900,-0.2,0.12,-0.97,-6.44,-6.72,-18.69
32920,-0.21,0.16,-0.95,-2.8,-4.13,-20.09
32940,-0.22,0.14,-0.93,1.68,-5.67,-19.25
32960,-0.25,0.15,-0.98,8.05,-5.46,-16.24
32980,-0.24,0.17,-0.97,14.49,6.3,-7.07
33000,-0.22,0.15,-0.95,16.8,3.64,-2.73
33020,-0.23,0.13,-0.96,16.24,3.57,2.52
33040,-0.25,0.07,-0.97,5.81,-2.59,4.41
33060,-0.25,0.06,-1.01,-3.5,2.59,1.89
33080,-0.2,0.08,-0.93,-2.73,11.55,3.08
33100,-0.18,0.08,-0.92,-0.7,1.47,-3.01
33120,-0.19,0.06,-0.96,0.14,-3.43,-12.46
33140,-0.21,0.09,-0.95,3.99,1.33,-17.01
33160,-0.22,0.09,-0.94,6.16,0.84,-12.18
33180,-0.23,0.1,-0.97,11.62,4.97,-14.28
33200,-0.21,0.1,-0.96,13.02,8.47,-15.05
33220,-0.2,0.09,-0.93,15.47,5.25,-16.52
33240,-0.2,0.04,-0.96,12.25,-1.33,-15.47
33260,-0.21,0.08,-0.97,17.92,4.41,-12.95
33280,-0.2,0.08,-0.95,11.34,0.42,-4.62
33300,-0.22,0.07,-1.0,14.7,1.54,-3.92
33320,-0.23,0.09,-0.98,20.86,12.6,1.82
33340,-0.18,0.01,-0.96,15.68,1.75,2.52
33360,-0.2,0.03,-0.98,20.02,10.85,-4.41
33380,-0.18,-0.02,-0.95,10.36,2.24,1.89
33400,-0.2,-0.03,-1.0,5.39,1.05,-4.83
33420,-0.16,-0.01,-0.96,10.36,12.39,-12.11
33440,-0.17,0.01,-0.91,6.86,-1.68,-6.23
33460,-0.18,-0.05,-1.0,0.14,-12.95,-11.48
33480,-0.22,0.0,-1.02,-5.53,1.96,-11.13
33500,-0.17,-0.0,-0.96,-7.35,2.73,-10.85
33520,-0.13,-0.01,-0.98,-4.27,3.64,-22.96
33540,-0.16,0.02,-0.94,10.08,7.07,-31.01
33560,-0.18,0.04,-0.94,13.58,4.76,-30.38
33580,-0.18,0.0,-0.95,18.69,-2.1,-25.97
33600,-0.19,-0.03,-0.97,16.52,17.71,-30.17
33620,-0.2,-0.03,-1.01,16.8,3.57,-23.59
33640,-0.22,0.08,-0.98,14.91,10.57,-5.88
33660,-0.2,-0.0,-1.0,0.49,-7.14,3.99
33680,-0.21,-0.05,-1.0,-5.81,4.76,13.65
33700,-0.15,-0.12,-0.94,-20.09,-16.52,3.29
33720,-0.18,-0.01,-1.04,-13.58,0.63,-4.34
33740,-0.16,0.08,-0.9,-4.2,6.09,7.56
33760,-0.17,-0.0,-0.97,-2.59,-11.41,5.04
33780,-0.2,0.02,-0.98,11.27,4.48,5.04
33800,-0.15,0.04,-0.94,19.04,0.28,6.65
33820,-0.17,-0.01,-0.95,18.34,-4.41,8.89
33840,-0.18,-0.05,-0.98,17.08,-3.5,6.51
33860,-0.17,-0.05,-0.98,14.91,6.93,-3.29
33880,-0.24,0.02,-1.01,21.0,17.78,6.16
33900,-0.13,0.02,-1.03,44.38,40.95,19.04
33920,-0.2,0.02,-0.92,28.0,20.93,34.58
33940,-0.13,-0.27,-1.01,5.25,-12.46,16.03
33960,-0.16,-0.2,-0.94,-11.41,-1.26,16.94
33980,-0.12,-0.12,-1.02,-41.44,-29.47,18.62
34000,-0.16,-0.02,-0.99,-41.09,-4.34,20.86
34020,-0.14,-0.04,-0.9,-39.48,-20.37,16.1
34040,-0.14,0.03,-0.96,-29.54,-24.43,15.68
34060,-0.16,0.0,-0.95,-25.55,-24.64,12.11
34080,-0.2,0.02,-1.0,-18.13,-20.23,8.75
34100,-0.19,0.05,-0.97,-10.5,-6.93,3.85
34120,-0.19,0.02,-0.94,-6.65,-10.29,0.56
34140,-0.2,0.02,-0.97,-6.09,-12.67,-1.33
34160,-0.21,0.04,-0.98,-0.63,-8.4,-5.81
34180,-0.22,0.05,-0.95,0.63,-7.21,-0.91
34200,-0.23,0.03,-0.98,-7.63,-14.14,0.98
34220,-0.23,0.02,-0.99,-10.36,-5.67,2.24
34240,-0.22,0.02,-0.95,-12.32,-4.34,-1.47
34260,-0.22,0.04,-0.95,-8.12,-4.48,-6.02
34280,-0.21,0.06,-0.94,-3.01,-2.94,-8.05
34300,-0.23,0.05,-0.95,2.38,-2.31,-9.87
34320,-0.21,0.06,-0.98,3.43,-3.22,-16.45
34340,-0.21,0.08,-0.97,6.02,-0.35,-13.79
34360,-0.21,0.09,-0.96,13.51,2.94,-10.64
34380,-0.25,0.05,-0.95,11.13,-4.34,-2.31
34400,-0.27,0.04,-1.02,6.58,0.21,0.28
34420,-0.24,0.02,-0.97,4.76,10.57,2.52
34440,-0.24,0.02,-0.96,1.05,7.35,4.62
34460,-0.21,0.01,-0.95,1.96,8.54,2.73
34480,-0.2,0.03,-0.94,4.2,2.8,0.91
34500,-0.2,0.03,-0.96,4.27,-0.63,-1.05
34520,-0.23,0.04,-0.99,1.33,-0.77,2.31
34540,-0.21,0.02,-0.97,0.63,2.03,3.22
34560,-0.21,0.03,-0.96,1.68,3.15,3.22
34580,-0.2,0.01,-0.96,-0.14,-0.56,2.17
34600,-0.21,0.02,-0.96,-0.63,0.63,0.91
34620,-0.2,0.02,-0.97,0.42,-0.56,0.7
34640,-0.21,0.01,-0.95,-0.21,-0.49,0.21
34660,-0.2,0.01,-0.96,-0.98,-2.73,-1.68
34680,-0.2,0.02,-0.96,0.21,-4.41,-4.55
34700,-0.21,0.02,-0.96,2.52,-4.27,-7.28
34720,-0.2,0.02,-0.96,5.25,-5.11,-8.47
34740,-0.19,0.0,-0.97,3.92,-6.02,-21.98
34760,-0.2,-0.02,-0.95,1.47,-6.86,-31.78
34780,-0.21,0.04,-0.98,1.47,-8.05,-17.71
34800,-0.22,0.08,-0.96,2.31,-0.84,-7.42
34820,-0.27,0.04,-1.02,-2.73,-9.24,0.91
34840,-0.24,0.05,-1.0,-2.66,6.51,3.92
34860,-0.25,0.03,-0.96,-9.45,0.28,10.57
34880,-0.24,0.03,-0.98,-10.85,4.41,11.34
34900,-0.22,0.03,-0.94,-6.51,7.84,14.07
34920,-0.19,-0.01,-0.94,-13.37,-5.18,11.76
34940,-0.21,0.01,-1.0,-15.89,-5.25,7.42
34960,-0.19,0.05,-0.95,-14.84,3.29,4.2
34980,-0.2,0.06,-0.94,-13.86,-4.2,6.02
35000,-0.21,0.05,-0.95,-8.05,-1.54,-0.21
35020,-0.2,0.05,-0.94,-3.08,-1.54,-3.99
35040,-0.22,0.07,-0.94,-1.75,-5.46,-4.34
35060,-0.22,0.05,-0.96,1.05,-2.66,-8.82
35080,-0.22,0.07,-0.95,2.73,-2.94,-12.04
35100,-0.21,0.05,-0.96,3.99,-2.24,-10.64
35120,-0.22,0.04,-0.97,-2.03,-8.33,-19.53
35140,-0.2,0.07,-0.97,1.61,4.48,-22.19
35160,-0.22,0.13,-0.91,7.98,-6.3,-8.4
35180,-0.25,0.08,-0.98,4.2,-9.87,3.92
35200,-0.28,0.07,-1.03,-1.05,-3.92,11.76
35220,-0.26,-0.01,-0.98,-10.78,0.28,10.08
35240,-0.24,0.08,-0.94,-10.85,3.29,14.0
35260,-0.22,0.07,-0.93,-16.66,-9.03,20.02
35280,-0.23,0.08,-0.97,-14.91,-7.91,14.42
35300,-0.22,0.09,-0.95,-12.32,-6.44,13.58
35320,-0.23,0.08,-0.95,-15.26,-10.36,15.82
35340,-0.23,0.08,-0.95,-9.03,-4.27,11.55
35360,-0.22,0.09,-0.93,-4.2,-4.34,3.99
35380,-0.22,0.1,-0.94,1.82,-3.78,-1.12
35400,-0.23,0.09,-0.96,-1.12,-5.53,-2.24
35420,-0.26,0.1,-0.96,2.52,-0.77,-3.92
35440,-0.26,0.17,-0.96,4.69,0.42,2.52
35460,-0.24,0.12,-0.98,1.19,0.56,5.11
35480,-0.26,0.1,-0.96,3.85,3.5,4.13
35500,-0.24,0.12,-0.97,5.04,5.53,4.76
35520,-0.22,0.1,-0.95,5.32,4.62,8.05
35540,-0.23,0.08,-0.94,4.48,0.49,5.95
35560,-0.24,0.08,-0.97,0.84,1.05,5.32
35580,-0.23,0.07,-0.96,-2.17,3.85,4.06
35600,-0.22,0.09,-0.94,-3.57,0.91,1.05
35620,-0.22,0.1,-0.95,-1.82,-2.1,-1.33
35640,-0.22,0.09,-0.95,-1.12,-0.77,0.35
35660,-0.22,0.1,-0.94,1.89,-3.36,-1.68
35680,-0.22,0.11,-0.96,3.64,-1.05,-2.73
35700,-0.23,0.12,-0.96,5.11,-0.21,-3.36
35720,-0.23,0.09,-0.96,5.25,1.19,-4.62
35740,-0.22,0.11,-0.95,9.87,2.94,-7.63
35760,-0.23,0.12,-0.96,9.52,-2.17,-5.04
35780,-0.23,0.08,-0.97,4.48,-1.82,-1.12
35800,-0.23,0.09,-0.97,5.32,1.75,-0.28
35820,-0.23,0.09,-0.97,3.64,0.98,2.94
35840,-0.24,0.07,-0.96,1.26,1.61,6.23
35860,-0.23,0.07,-0.96,-1.26,1.19,5.81
35880,-0.22,0.09,-0.95,-1.75,3.43,6.86
35900,-0.22,0.08,-0.95,-2.31,0.84,4.83
35920,-0.21,0.08,-0.96,-2.8,-0.49,3.5
35940,-0.22,0.09,-0.96,-1.96,0.21,4.06
35960,-0.21,0.08,-0.95,-0.42,-1.4,2.31
35980,-0.22,0.08,-0.96,0.35,-0.42,2.31
36000,-0.21,0.09,-0.96,-0.42,0.28,-1.26
36020,-0.21,0.11,-0.96,0.28,-1.61,-1.61
36040,-0.22,0.08,-0.96,-0.28,-1.61,0.0
36060,-0.21,0.1,-0.95,2.59,0.0,-1.47
36080,-0.22,0.1,-0.95,2.03,-4.2,-0.49
36100,-0.22,0.1,-0.98,-2.03,-5.74,2.73
36120,-0.24,0.1,-0.98,-3.99,-1.54,8.12
36140,-0.24,0.11,-0.96,-7.14,-2.31,15.05
36160,-0.23,0.08,-0.97,-11.9,-3.99,16.31
36180,-0.22,0.09,-0.96,-12.25,-1.33,14.07
36200,-0.21,0.11,-0.94,-14.42,-4.48,13.51
36220,-0.22,0.12,-0.96,-18.27,-8.05,17.5
36240,-0.24,0.13,-0.97,-18.27,-2.59,18.97
36260,-0.24,0.15,-0.95,-16.87,0.63,20.72
36280,-0.22,0.16,-0.94,-12.74,3.92,17.99
36300,-0.2,0.16,-0.92,-7.49,2.73,15.61
36320,-0.2,0.15,-0.94,-2.87,-2.31,7.63
36340,-0.21,0.17,-0.95,2.03,2.87,5.88
36360,-0.21,0.19,-0.93,7.84,2.73,6.79
36380,-0.19,0.17,-0.94,11.27,-0.91,2.24
36400,-0.2,0.15,-0.95,13.93,-2.17,-2.1
36420,-0.2,0.12,-0.96,10.08,-6.3,-1.33
36440,-0.22,0.13,-0.99,3.15,-3.85,0.98
36460,-0.22,0.14,-0.97,-2.03,-1.19,3.01
36480,-0.21,0.14,-0.96,-6.23,-2.87,5.74
36500,-0.19,0.12,-0.95,-7.21,-3.64,2.59
36520,-0.23,0.15,-0.95,-13.79,-7.98,6.23
36540,-0.23,0.15,-0.98,-20.09,-6.23,11.13
36560,-0.24,0.18,-0.97,-20.51,2.31,14.49
36580,-0.22,0.19,-0.93,-17.92,4.76,16.45
36600,-0.22,0.2,-0.93,-12.18,3.71,12.81
36620,-0.2,0.19,-0.94,-5.04,2.87,6.86
36640,-0.21,0.22,-0.97,-3.01,1.4,2.1
36660,-0.19,0.2,-0.96,-8.68,4.34,2.52
36680,-0.23,0.2,-0.89,-2.03,10.36,9.03
36700,-0.18,0.2,-0.93,6.58,-0.42,-11.83
36720,-0.19,0.19,-0.97,4.27,1.12,-15.61
36740,-0.17,0.15,-0.93,6.51,-0.35,-22.61
36760,-0.19,0.19,-0.94,7.07,-2.24,-19.39
36780,-0.2,0.2,-0.95,0.56,-5.11,-12.32
36800,-0.22,0.19,-0.95,-1.26,-3.71,-5.46
36820,-0.23,0.2,-0.96,-6.44,-0.91,3.36
36840,-0.2,0.19,-0.94,-9.66,-3.01,6.09
36860,-0.21,0.21,-0.94,-8.61,-0.7,11.48
36880,-0.22,0.22,-0.95,-8.61,-2.52,17.71
36900,-0.2,0.22,-0.95,-5.81,1.33,13.58
36920,-0.19,0.21,-0.94,-3.57,2.73,14.91
36940,-0.2,0.21,-0.93,-2.59,1.75,11.97
36960,-0.18,0.22,-0.93,-0.14,-1.12,9.17
36980,-0.19,0.21,-0.94,1.68,-2.87,3.43
37000,-0.19,0.21,-0.96,0.21,-2.8,3.64
37020,-0.21,0.23,-0.94,1.82,0.14,4.62
37040,-0.18,0.21,-0.93,2.73,-1.12,3.43
37060,-0.2,0.22,-0.94,2.94,-2.73,3.08
37080,-0.21,0.23,-0.97,-0.35,-2.38,11.27
37100,-0.19,0.19,-0.95,-1.96,2.38,10.15
37120,-0.19,0.19,-0.92,-1.47,2.52,6.3
37140,-0.18,0.2,-0.94,-3.5,-1.89,6.37
37160,-0.18,0.19,-0.95,-2.87,-1.33,2.17
37180,-0.18,0.2,-0.95,-5.04,0.7,-1.82
37200,-0.18,0.22,-0.94,-5.6,0.35,-3.36
37220,-0.17,0.22,-0.94,-5.32,-2.94,-8.05
37240,-0.19,0.24,-0.94,-4.69,-2.52,-8.82
37260,-0.19,0.26,-0.95,-3.85,-1.89,-7.49
37280,-0.2,0.26,-0.94,-1.96,0.21,-3.5
37300,-0.2,0.26,-0.94,-1.05,-1.19,-1.68
37320,-0.2,0.25,-0.94,0.63,0.42,-1.12
37340,-0.2,0.24,-0.93,0.56,-0.35,-0.21
37360,-0.2,0.23,-0.93,1.4,0.63,2.24
37380,-0.19,0.22,-0.93,1.54,-1.05,2.24
37400,-0.2,0.22,-0.93,-0.98,-2.59,2.1
37420,-0.21,0.24,-0.95,-0.77,-1.54,3.92
37440,-0.19,0.24,-0.95,0.21,17.78,3.01
37460,-0.2,0.25,-0.94,2.59,-0.28,3.85
37480,-0.2,0.23,-0.94,1.47,1.47,6.37
37500,-0.18,0.23,-0.93,0.0,2.1,6.86
37520,-0.18,0.24,-0.93,3.64,3.36,9.03
37540,-0.18,0.24,-0.94,5.81,2.52,6.37
37560,-0.17,0.23,-0.92,11.83,3.43,3.08
37580,-0.17,0.24,-0.94,12.74,-4.69,1.19
37600,-0.19,0.23,-0.96,18.27,6.86,3.22
37620,-0.19,0.24,-0.95,20.09,4.2,2.17
37640,-0.17,0.22,-0.97,17.71,5.25,3.01
37660,-0.16,0.19,-0.91,20.37,2.24,7.21
37680,-0.15,0.14,-0.96,14.35,-8.68,-0.56
37700,-0.17,0.12,-0.97,4.2,-5.6,-0.35
37720,-0.18,0.18,-0.96,-4.2,-3.29,-0.35
37740,-0.18,0.21,-0.94,-5.46,-8.68,0.49
37760,-0.18,0.19,-0.97,-3.92,-3.15,3.08
37780,-0.19,0.21,-0.96,-6.58,-2.94,1.54
37800,-0.18,0.21,-0.92,-5.18,-4.34,1.33
37820,-0.17,0.19,-0.97,-6.51,-4.55,-1.19
37840,-0.17,0.2,-0.93,-6.02,-6.51,-3.01
37860,-0.19,0.21,-0.96,-3.29,-5.25,-0.7
37880,-0.19,0.22,-0.95,-1.4,-4.62,1.26
37900,-0.18,0.21,-0.95,-1.4,-5.74,-1.4
37920,-0.2,0.22,-0.94,0.77,-3.43,-0.98
37940,-0.19,0.21,-0.95,0.63,-4.97,0.56
37960,-0.19,0.21,-0.96,1.89,-0.91,0.42
37980,-0.2,0.21,-0.94,0.07,-1.54,3.08
38000,-0.19,0.2,-0.94,-0.35,0.07,3.29
38020,-0.19,0.21,-0.94,-0.28,-3.36,0.49
38040,-0.19,0.21,-0.97,-0.98,-1.68,-0.49
38060,-0.18,0.21,-0.93,1.4,-1.47,-1.68
38080,-0.18,0.2,-0.93,2.1,-3.36,-5.04
38100,-0.2,0.21,-0.95,0.28,-3.43,-3.29
38120,-0.2,0.21,-0.96,0.14,-0.49,-0.42
38140,-0.19,0.22,-0.94,-0.14,-0.35,-0.49
38160,-0.2,0.21,-0.94,-0.35,-3.01,0.56
38180,-0.21,0.21,-0.96,-0.63,-0.07,1.89
38200,-0.19,0.22,-0.95,-0.7,3.15,3.99
38220,-0.18,0.22,-0.93,-0.49,-1.05,1.26
38240,-0.19,0.21,-0.94,0.21,-2.24,1.33
38260,-0.18,0.21,-0.95,1.54,-1.19,-0.77
38280,-0.19,0.2,-0.94,0.0,-0.35,0.21
38300,-0.19,0.22,-0.94,0.14,-0.98,-0.49
38320,-0.19,0.21,-0.94,0.98,-1.96,-2.24
38340,-0.2,0.22,-0.96,0.42,-0.63,-1.47
38360,-0.19,0.22,-0.93,2.38,0.07,-1.89
38380,-0.19,0.21,-0.95,0.42,-1.47,-1.82
38400,-0.2,0.21,-0.95,0.7,-0.21,-3.43
38420,-0.19,0.22,-0.94,1.61,-0.28,-2.94
38440,-0.19,0.21,-0.94,1.61,-1.05,-2.94
38460,-0.19,0.21,-0.94,2.1,-0.84,-3.08
38480,-0.19,0.2,-0.94,0.98,-0.35,-1.4
38500,-0.19,0.2,-0.93,-1.12,-1.4,-0.98
38520,-0.2,0.19,-0.94,-2.45,-4.48,0.35
38540,-0.21,0.2,-0.95,-3.64,-3.36,-0.35
38560,-0.21,0.22,-0.95,-3.85,-1.68,-0.28
38580,-0.18,0.23,-0.94,-3.92,-3.29,-0.77
38600,-0.19,0.23,-0.94,-0.28,-5.95,-0.84
38620,-0.2,0.21,-0.96,-2.38,-4.76,-2.52
38640,-0.19,0.21,-0.93,-0.42,-3.22,-6.3
38660,-0.2,0.23,-0.93,1.96,-5.81,-6.86
38680,-0.21,0.24,-0.95,1.4,-6.51,-2.94
38700,-0.2,0.22,-0.94,5.95,-3.57,-4.2
38720,-0.21,0.22,-0.92,8.68,-4.27,-4.13
38740,-0.2,0.19,-0.94,6.65,-9.17,-7.35
38760,-0.21,0.19,-0.95,6.51,-5.46,-9.52
38780,-0.21,0.22,-0.94,10.64,-4.62,-12.46
38800,-0.22,0.22,-0.93,9.52,-8.19,-3.78
38820,-0.24,0.19,-0.95,7.0,-7.28,-3.29
38840,-0.23,0.17,-0.94,8.19,-5.74,-9.31
38860,-0.25,0.21,-0.96,7.49,-1.61,-5.32
38880,-0.24,0.2,-0.94,6.09,-1.26,1.05
38900,-0.23,0.19,-0.93,12.88,-0.28,0.7
38920,-0.23,0.2,-0.96,15.82,0.21,-2.03
38940,-0.23,0.19,-0.96,11.97,-1.12,2.45
38960,-0.22,0.16,-0.96,15.33,3.01,-1.89
38980,-0.22,0.15,-0.93,12.74,-0.42,-3.08
39000,-0.23,0.14,-0.96,10.78,-0.21,-5.39
39020,-0.22,0.14,-0.95,9.24,1.19,-5.25
39040,-0.23,0.14,-0.95,5.46,-0.63,-4.41
39060,-0.24,0.14,-0.97,3.5,0.91,-3.92
39080,-0.24,0.16,-0.95,4.13,2.45,-0.21
39100,-0.22,0.15,-0.96,3.5,1.96,1.61
39120,-0.21,0.13,-0.94,4.34,2.31,-0.7
39140,-0.22,0.12,-0.94,4.55,-0.07,-4.27
39160,-0.21,0.14,-0.94,8.19,2.03,-5.67
39180,-0.21,0.14,-0.94,15.12,0.21,-9.17
39200,-0.21,0.13,-0.95,20.72,0.91,-14.7
39220,-0.22,0.13,-0.96,25.34,3.08,-18.62
39240,-0.21,0.11,-0.95,25.76,2.59,-15.96
39260,-0.22,0.09,-0.96,25.06,-1.47,-18.34
39280,-0.23,0.1,-0.98,28.14,7.21,-13.44
39300,-0.23,0.09,-0.97,27.16,9.94,-10.22
39320,-0.22,0.07,-0.98,28.14,14.49,-10.78
39340,-0.22,0.05,-0.97,23.59,10.64,-3.5
39360,-0.22,0.04,-0.96,25.41,14.42,2.1
39380,-0.21,0.03,-0.95,17.99,5.95,8.05
39400,-0.2,-0.02,-0.99,11.9,4.55,10.08
39420,-0.18,-0.03,-0.97,7.77,3.92,1.54
39440,-0.16,-0.03,-0.95,7.84,3.99,-3.92
39460,-0.18,0.02,-0.94,7.28,-3.29,1.68
39480,-0.19,-0.0,-0.98,8.12,-5.25,-0.42
39500,-0.18,-0.02,-0.96,10.22,2.24,-5.39
39520,-0.19,0.01,-0.96,10.92,2.94,-5.81
39540,-0.18,0.01,-0.99,5.46,2.03,-1.05
39560,-0.18,0.01,-0.99,5.95,4.69,-4.62
39580,-0.19,0.02,-0.96,17.15,7.56,-4.27
39600,-0.19,0.06,-0.91,12.04,-1.96,15.26
39620,-0.23,-0.11,-1.02,-12.32,-22.47,17.85
39640,-0.21,-0.11,-1.06,-22.47,-1.4,2.03
39660,-0.16,0.06,-0.95,-6.02,12.25,-7.28
39680,-0.12,0.1,-0.89,8.33,-1.47,-2.73
39700,-0.19,0.02,-1.01,9.17,-11.62,0.14
39720,-0.21,-0.06,-1.02,4.55,0.56,-6.44
39740,-0.18,-0.02,-0.97,3.78,12.04,-13.93
39760,-0.16,0.01,-0.91,9.03,7.91,-13.09
39780,-0.17,-0.02,-0.97,8.12,-2.45,-10.08
39800,-0.17,-0.02,-0.98,15.82,9.59,-20.51
39820,-0.17,-0.01,-0.94,12.53,3.29,-16.38
39840,-0.19,-0.01,-0.98,8.33,-0.84,-2.8
39860,-0.2,-0.04,-0.99,-3.43,-5.95,4.48
39880,-0.18,-0.05,-0.96,-9.24,-2.8,13.09
39900,-0.18,-0.06,-0.94,-17.01,-12.74,14.14
39920,-0.18,-0.0,-1.02,-23.8,-17.15,16.17
39940,-0.2,0.07,-0.98,-7.7,6.37,10.85
39960,-0.15,0.02,-0.97,5.81,2.8,3.99
39980,-0.14,-0.07,-0.93,11.48,-0.63,-6.02
40000,-0.18,-0.04,-0.97,7.63,-7.63,-7.42
40020,-0.19,-0.01,-0.98,3.85,-2.03,-6.86
40040,-0.18,-0.0,-0.97,3.01,-3.43,-10.5
40060,-0.17,-0.04,-0.97,6.16,2.45,-11.9
40080,-0.16,-0.04,-0.96,10.29,3.85,-19.74
40100,-0.14,-0.02,-0.94,14.63,-0.42,-23.8
40120,-0.2,0.01,-0.99,17.92,2.73,-12.6
40140,-0.2,-0.02,-1.0,6.93,-0.28,0.98
40160,-0.2,-0.09,-0.99,4.76,1.68,0.77
40180,-0.13,-0.08,-0.93,1.68,0.21,0.7
40200,-0.2,-0.1,-0.93,-13.02,-21.84,8.61
40220,-0.22,-0.05,-1.07,-26.39,-20.65,7.49
40240,-0.21,0.04,-0.99,-17.71,6.58,5.81
40260,-0.18,0.04,-0.92,-2.03,2.94,7.98
40280,-0.16,-0.03,-0.94,4.13,-5.74,1.89
40300,-0.19,-0.03,-0.96,8.47,-6.51,-0.07
40320,-0.19,-0.02,-1.0,6.02,-7.07,2.03
40340,-0.2,-0.03,-1.0,-2.45,-6.65,4.9
40360,-0.2,-0.02,-0.99,-1.33,-0.77,-1.4
40380,-0.16,-0.02,-0.94,2.87,0.0,-4.62
40400,-0.19,-0.01,-0.96,0.28,-9.52,0.0
40420,-0.18,-0.06,-0.98,4.34,-5.18,-8.75
40440,-0.17,-0.01,-0.93,6.93,-5.46,-16.03
40460,-0.19,-0.04,-0.96,8.19,-6.09,-15.89
40480,-0.2,-0.05,-0.98,16.59,-0.98,-25.69
40500,-0.18,-0.02,-0.99,20.65,11.27,-18.48
40520,-0.22,-0.04,-0.94,14.63,-8.12,-14.7
40540,-0.26,-0.04,-1.05,3.92,-3.15,-1.68
40560,-0.27,-0.08,-0.98,-9.31,4.76,4.48
40580,-0.18,-0.09,-0.9,4.27,15.4,2.73
40600,-0.22,-0.09,-0.81,-8.54,-24.92,19.32
40620,-0.24,-0.09,-1.09,-24.92,-35.56,16.45
40640,-0.24,-0.02,-1.07,-26.11,5.81,9.38
40660,-0.2,0.02,-0.93,-22.12,3.78,13.44
40680,-0.2,0.01,-0.95,-19.46,-7.63,15.89
40700,-0.19,0.0,-0.96,-14.21,-9.8,10.57
40720,-0.22,0.02,-0.96,-7.14,-5.32,7.7
40740,-0.21,0.01,-0.98,-6.09,-3.5,4.97
40760,-0.21,0.01,-0.96,-0.7,0.56,2.1
40780,-0.19,0.01,-0.93,6.02,1.75,-1.54
40800,-0.21,-0.0,-0.94,2.8,-8.05,0.7
40820,-0.23,-0.03,-0.98,4.34,-5.39,-5.81
40840,-0.23,-0.02,-0.95,0.21,-4.69,-1.05
40860,-0.25,0.01,-1.0,-4.2,-5.39,-1.12
40880,-0.24,0.02,-0.97,-5.04,-0.14,0.35
40900,-0.22,0.01,-0.94,0.21,1.47,-4.13
40920,-0.23,0.02,-0.95,5.32,0.91,-2.87
40940,-0.23,-0.02,-0.99,1.19,-0.28,-9.87
40960,-0.22,-0.01,-0.99,-1.4,5.53,-20.37
40980,-0.19,0.01,-0.94,3.08,4.76,-19.39
41000,-0.25,0.04,-0.81,5.67,-13.3,3.71
41020,-0.27,0.01,-1.12,-2.94,-29.61,0.07
41040,-0.27,0.03,-1.05,-5.67,12.6,2.94
41060,-0.25,0.03,-0.96,-9.94,3.57,12.39
41080,-0.21,0.01,-0.97,-3.08,10.71,7.0
41100,-0.2,0.02,-0.9,2.17,3.01,2.17
41120,-0.22,0.02,-0.95,7.63,0.98,5.67
41140,-0.22,-0.02,-0.97,4.9,-3.29,4.13
41160,-0.23,-0.01,-0.98,6.16,4.34,1.19
41180,-0.21,0.02,-0.95,8.96,4.9,-0.84
41200,-0.21,-0.0,-0.97,9.38,0.56,-5.46
41220,-0.22,-0.02,-0.99,10.92,6.79,-1.47
41240,-0.21,0.0,-0.94,7.0,-0.77,2.24
41260,-0.23,-0.01,-0.99,5.88,-2.17,2.73
41280,-0.23,-0.01,-0.99,2.66,1.12,6.65
41300,-0.22,0.0,-0.95,6.93,8.33,6.37
41320,-0.19,-0.02,-0.94,10.15,0.42,3.99
41340,-0.22,-0.0,-0.98,10.43,2.8,6.93
41360,-0.22,-0.02,-0.97,6.09,3.64,10.43
41380,-0.21,-0.04,-0.95,6.16,7.14,9.31
41400,-0.2,-0.05,-0.95,3.01,2.1,8.05
41420,-0.19,-0.03,-0.99,1.05,1.54,3.08
41440,-0.2,-0.02,-0.96,1.75,3.22,1.68
41460,-0.2,-0.02,-0.99,4.27,2.94,-3.5
41480,-0.17,-0.03,-0.97,11.55,8.54,-8.47
41500,-0.15,-0.04,-0.93,14.42,6.44,-14.77
41520,-0.21,-0.04,-0.96,7.42,-5.25,-1.33
41540,-0.22,-0.04,-1.01,-0.91,-5.11,1.19
41560,-0.18,-0.03,-0.98,-4.41,1.82,2.38
41580,-0.21,-0.08,-0.95,-21.63,-15.89,9.17
41600,-0.19,-0.07,-0.96,-18.55,-8.33,-4.48
41620,-0.2,0.04,-0.97,-7.7,-1.26,-5.74
41640,-0.18,0.01,-0.95,-0.49,-1.33,-2.1
41660,-0.19,-0.01,-0.96,5.39,-6.86,-4.69
41680,-0.22,-0.02,-0.99,6.09,-5.67,-6.44
41700,-0.2,-0.02,-0.99,1.82,-1.75,-8.68
41720,-0.2,-0.02,-0.98,0.91,0.35,-14.21
41740,-0.19,-0.06,-0.94,4.06,4.34,-14.91
41760,-0.19,-0.04,-0.96,3.01,-3.43,-17.29
41780,-0.2,-0.03,-0.95,7.07,0.63,-17.15
41800,-0.2,-0.05,-0.97,6.79,-1.68,-21.91
41820,-0.21,-0.02,-0.99,1.26,-2.59,-16.1
41840,-0.23,-0.0,-0.99,3.57,3.99,-10.85
41860,-0.18,0.01,-0.95,7.56,4.13,-4.48
41880,-0.21,-0.06,-0.98,-1.82,-14.0,-1.19
41900,-0.21,-0.08,-0.99,-7.14,-3.15,-0.77
41920,-0.22,-0.05,-0.92,-15.96,-14.42,9.17
41940,-0.24,0.0,-1.01,-21.14,-14.14,11.69
41960,-0.23,-0.0,-1.0,-16.73,0.35,10.29
41980,-0.19,-0.01,-0.95,-10.08,0.63,2.94
42000,-0.18,-0.01,-0.92,4.48,0.35,-4.97
42020,-0.17,-0.02,-1.0,15.26,1.12,-4.34
42040,-0.17,0.01,-0.97,15.82,-4.41,-15.19
42060,-0.22,-0.02,-0.99,9.59,4.13,-9.1
42080,-0.22,-0.06,-0.96,-1.75,-5.39,-7.14
42100,-0.2,-0.04,-1.0,-0.56,1.96,-20.58
42120,-0.21,-0.03,-0.95,0.21,4.55,-29.47
42140,-0.17,-0.03,-0.94,3.92,-3.15,-28.7
42160,-0.18,-0.02,-0.94,13.09,0.56,-30.66
42180,-0.22,-0.04,-0.97,21.49,-3.29,-28.21
42200,-0.26,-0.02,-0.97,21.91,-0.42,-19.18
42220,-0.26,-0.05,-1.01,3.99,-11.27,-7.0
42240,-0.24,-0.12,-0.98,0.98,5.46,-6.23
42260,-0.22,-0.11,-0.9,-3.78,-3.01,-3.43
42280,-0.2,-0.07,-0.96,-1.33,-3.08,2.24
42300,-0.21,-0.07,-0.85,-4.06,-6.09,22.61
42320,-0.28,-0.12,-1.02,-20.93,-39.83,23.59
42340,-0.29,-0.06,-1.11,-37.17,-10.99,22.26
42360,-0.25,-0.0,-0.97,-41.02,-2.87,22.33
42380,-0.22,0.03,-0.92,-36.4,-4.97,27.37
42400,-0.22,0.06,-0.91,-30.8,-14.56,30.52
42420,-0.22,0.05,-0.95,-22.54,-18.2,25.27
42440,-0.24,0.05,-0.97,-13.44,-11.76,22.05
42460,-0.25,0.04,-0.97,-8.75,-7.28,15.33
42480,-0.26,0.04,-0.95,-2.38,-1.47,13.86
42500,-0.24,0.05,-0.94,-0.14,-4.48,12.32
42520,-0.25,0.05,-0.96,2.8,-3.01,10.5
42540,-0.23,0.04,-0.96,5.04,0.28,7.91
42560,-0.24,0.03,-0.95,5.04,-1.61,5.32
42580,-0.25,0.04,-0.96,5.95,-1.26,5.32
42600,-0.26,0.04,-0.95,6.23,-2.03,5.18
42620,-0.25,0.03,-0.95,6.72,-1.33,4.13
42640,-0.26,0.0,-0.96,3.29,-2.73,-2.59
42660,-0.27,-0.0,-0.96,4.62,2.87,-12.67
42680,-0.24,0.03,-0.97,6.02,6.23,-20.72
42700,-0.24,0.05,-0.96,7.49,10.71,-27.3
42720,-0.24,0.11,-1.05,20.23,17.71,-17.5
42740,-0.23,0.17,-0.72,25.34,20.23,30.31
42760,-0.31,-0.09,-1.05,-5.81,-60.76,28.77
42780,-0.3,-0.04,-1.22,-12.11,18.62,9.87
42800,-0.24,0.03,-0.87,-18.2,13.65,8.96
42820,-0.19,0.04,-0.94,-21.07,1.61,9.45
42840,-0.21,0.04,-0.92,-21.07,-4.97,8.12
42860,-0.25,0.07,-0.95,-18.48,-7.77,12.6
42880,-0.25,0.07,-0.96,-12.95,-4.55,9.52
42900,-0.25,0.09,-0.95,-6.51,1.89,6.09
42920,-0.25,0.06,-0.93,-9.66,-2.66,4.76
42940,-0.26,0.05,-0.94,-3.57,2.1,-3.71
42960,-0.33,0.18,-1.0,15.47,16.17,5.88
42980,-0.29,0.26,-1.03,29.33,16.73,18.41
43000,-0.19,0.15,-0.93,37.94,45.15,30.24
43020,-0.13,-0.12,-0.75,31.78,7.98,19.18
43040,-0.16,-0.22,-0.99,8.4,-33.11,-5.39
43060,-0.22,-0.04,-1.05,-13.37,-9.1,-10.71
43080,-0.22,0.1,-1.02,-21.56,-7.14,-5.46
43100,-0.22,0.12,-0.97,-13.16,2.73,-0.21
43120,-0.23,0.1,-0.93,-8.96,-5.18,7.77
43140,-0.25,0.06,-0.97,-3.29,-2.31,1.89
43160,-0.22,0.06,-0.92,3.22,-0.35,1.75
43180,-0.22,0.05,-0.94,3.01,-4.41,1.33
43200,-0.23,0.04,-0.97,-1.4,-4.13,0.28
43220,-0.23,0.07,-0.99,-2.03,1.61,0.0
43240,-0.21,0.07,-0.95,-3.29,-1.47,2.94
43260,-0.23,0.07,-0.96,-5.46,-5.81,11.2
43280,-0.24,0.06,-0.97,2.87,-1.68,2.73
43300,-0.21,0.07,-0.97,-5.04,-6.23,8.75
43320,-0.24,0.05,-0.97,-9.03,-6.3,9.87
43340,-0.21,0.05,-0.96,-8.05,-3.15,8.75
43360,-0.23,0.09,-0.95,-10.01,-5.32,8.75
43380,-0.24,0.08,-0.98,-13.58,-10.15,12.67
43400,-0.25,0.1,-0.97,-12.95,-1.26,14.98
43420,-0.24,0.09,-0.94,-10.85,-2.17,14.91
43440,-0.23,0.1,-0.95,-7.7,-2.17,12.32
43460,-0.23,0.11,-0.95,-4.48,-2.24,11.06
43480,-0.23,0.11,-0.95,-3.5,-2.45,8.89
43500,-0.23,0.11,-0.96,-3.36,-1.68,8.96
43520,-0.24,0.11,-0.95,-2.59,0.14,8.12
43540,-0.23,0.13,-0.93,2.1,2.17,8.47
43560,-0.22,0.12,-0.97,4.13,-5.95,3.57
43580,-0.24,0.12,-0.99,-2.45,-1.89,9.87
43600,-0.26,0.11,-0.95,-4.34,1.47,13.09
43620,-0.23,0.12,-0.95,-4.83,0.7,12.88
43640,-0.23,0.12,-0.98,-6.93,-0.91,11.55
43660,-0.23,0.12,-0.98,-13.23,1.82,14.14
43680,-0.23,0.12,-0.97,-18.76,5.32,18.62
43700,-0.23,0.12,-0.94,-21.91,3.78,18.06
43720,-0.22,0.14,-0.94,-17.78,3.57,13.58
43740,-0.22,0.16,-0.94,-12.6,2.73,7.07
43760,-0.21,0.17,-0.92,-8.89,-0.63,1.05
43780,-0.2,0.17,-0.97,-9.73,-0.49,-0.91
43800,-0.23,0.19,-0.97,-10.22,7.7,-0.14
43820,-0.21,0.19,-0.89,-3.85,2.31,-5.39
43840,-0.17,0.16,-0.94,6.23,-2.17,-19.6
43860,-0.21,0.2,-0.97,7.14,0.14,-18.27
43880,-0.19,0.16,-0.93,5.11,-1.89,-17.57
43900,-0.19,0.17,-0.94,0.63,-6.3,-14.56
43920,-0.22,0.16,-0.95,-2.17,-7.56,-11.13
43940,-0.24,0.19,-0.98,-5.53,-3.99,-4.27
43960,-0.22,0.18,-0.95,-7.0,0.21,-1.19
43980,-0.22,0.18,-0.94,-7.0,-1.75,2.73
44000,-0.23,0.18,-0.94,-6.93,-4.27,3.85
44020,-0.23,0.2,-0.94,-2.94,-0.42,3.22
44040,-0.22,0.19,-0.94,-2.1,-1.82,3.64
44060,-0.23,0.19,-0.94,1.54,-1.61,3.29
44080,-0.23,0.19,-0.94,1.61,-1.82,3.43
44100,-0.21,0.18,-0.93,0.7,-2.59,2.66
44120,-0.22,0.18,-0.94,2.45,-6.09,-0.28
44140,-0.24,0.19,-0.96,1.05,-2.66,2.17
44160,-0.23,0.18,-0.96,-1.33,-1.75,4.13
44180,-0.22,0.18,-0.94,-1.12,-0.7,0.91
44200,-0.22,0.18,-0.93,-0.07,-2.17,0.7
44220,-0.23,0.2,-0.95,1.75,-3.01,-0.14
44240,-0.23,0.2,-0.96,1.89,-1.26,0.7
44260,-0.22,0.18,-0.94,2.59,-1.4,-0.14
44280,-0.23,0.19,-0.95,4.48,0.35,-0.49
44300,-0.22,0.18,-0.93,4.34,-1.26,0.07
44320,-0.23,0.17,-0.95,4.2,-2.31,-1.68
44340,-0.23,0.18,-0.94,3.71,-0.77,-1.12
44360,-0.23,0.17,-0.94,1.75,-1.61,0.07
44380,-0.23,0.17,-0.95,1.4,-0.35,-0.7
44400,-0.22,0.18,-0.95,1.12,-1.05,0.0
44420,-0.23,0.18,-0.94,0.77,0.42,1.33
44440,-0.23,0.18,-0.95,1.4,0.21,1.12
44460,-0.22,0.18,-0.94,1.12,-0.07,1.89
44480,-0.22,0.18,-0.95,1.26,-0.21,0.7
44500,-0.22,0.18,-0.94,3.36,-0.63,0.91
44520,-0.22,0.18,-0.96,3.43,-0.98,1.54
44540,-0.23,0.18,-0.96,3.64,0.84,0.98
44560,-0.22,0.17,-0.95,3.57,0.49,0.77
44580,-0.23,0.17,-0.94,2.87,0.7,0.7
44600,-0.22,0.17,-0.96,3.08,1.82,1.19
44620,-0.22,0.16,-0.96,1.68,1.19,-1.05
44640,-0.21,0.18,-0.93,3.85,0.7,-6.58
44660,-0.21,0.18,-0.94,6.65,-0.98,-8.54
44680,-0.21,0.17,-0.93,8.61,-0.42,-7.98
44700,-0.22,0.17,-0.93,13.23,-2.17,-8.26
44720,-0.21,0.16,-0.93,15.75,-6.37,-10.36
44740,-0.21,0.17,-0.93,17.43,-10.08,-8.19
44760,-0.23,0.16,-0.95,19.04,-9.38,-6.23
44780,-0.25,0.16,-0.96,19.67,-9.94,-3.01
44800,-0.25,0.15,-0.99,24.64,-1.54,0.7
44820,-0.24,0.12,-0.94,20.93,-1.05,8.89
44840,-0.26,0.09,-0.96,17.15,-6.02,9.45
44860,-0.25,0.1,-0.96,21.63,2.17,9.1
44880,-0.22,0.09,-0.95,17.92,-1.26,9.38
44900,-0.23,0.07,-0.96,14.91,-1.4,8.47
44920,-0.24,0.05,-0.95,10.57,-4.83,5.18
44940,-0.24,0.05,-0.96,9.45,-3.29,-0.42
44960,-0.22,0.05,-0.96,9.24,-3.36,-4.34
44980,-0.24,0.07,-0.96,5.32,-3.92,-4.9
45000,-0.23,0.07,-0.96,2.45,-5.11,-3.5
45020,-0.23,0.03,-0.95,-1.68,-8.26,-10.78
45040,-0.24,0.05,-0.94,-0.98,-9.59,-16.66
45060,-0.24,0.07,-0.96,2.1,-5.88,-14.21
45080,-0.26,0.1,-0.95,5.18,-1.68,-12.18
45100,-0.26,0.1,-0.98,13.09,-0.49,-8.82
45120,-0.27,0.1,-0.98,22.05,11.48,-10.43
45140,-0.25,0.07,-0.97,26.32,15.75,-9.31
45160,-0.25,0.07,-0.94,28.42,15.75,0.98
45180,-0.25,0.0,-0.95,17.99,-1.68,4.13
45200,-0.27,0.0,-0.99,12.74,4.76,7.49
45220,-0.24,-0.03,-0.98,-0.56,4.27,8.89
45240,-0.23,-0.02,-0.95,-3.22,10.64,7.0
45260,-0.21,0.01,-0.96,-2.17,8.82,2.03
45280,-0.2,0.02,-0.96,1.4,9.94,-2.24
45300,-0.2,0.02,-0.95,7.14,3.92,-3.92
45320,-0.2,0.01,-0.96,12.74,6.93,-6.86
45340,-0.21,-0.02,-0.95,11.62,-1.47,-6.37
45360,-0.22,-0.02,-0.98,19.39,5.95,-13.3
45380,-0.17,-0.02,-0.95,5.67,-5.32,-7.63
45400,-0.23,-0.08,-1.01,-14.0,-15.05,-3.01
45420,-0.26,0.02,-1.01,-17.57,2.59,-3.15
45440,-0.22,0.09,-0.95,-14.63,7.42,7.91
45460,-0.22,0.09,-0.94,-2.17,7.49,13.16
45480,-0.19,0.02,-0.94,7.0,-17.36,10.92
45500,-0.19,-0.01,-0.97,16.38,-1.82,-1.61
45520,-0.15,-0.05,-0.95,15.96,-1.26,-11.62
45540,-0.18,-0.08,-0.97,3.57,-15.54,-18.97
45560,-0.22,0.0,-0.98,2.52,-3.57,-14.56
45580,-0.23,0.03,-0.99,-2.45,-6.3,-10.85
45600,-0.22,0.03,-1.01,0.98,5.46,-12.88
45620,-0.21,-0.01,-0.94,3.43,4.48,-13.58
45640,-0.18,-0.02,-0.93,5.53,2.31,-16.24
45660,-0.21,-0.04,-0.93,2.52,-9.52,-18.34
45680,-0.22,-0.01,-0.98,-0.77,-8.26,-18.62
45700,-0.23,0.03,-1.0,-4.48,-3.99,-13.44
45720,-0.23,0.05,-0.99,0.91,5.46,-2.73
45740,-0.25,0.04,-0.93,-3.08,-6.65,12.11
45760,-0.23,-0.03,-0.98,-0.42,-3.22,11.9
45780,-0.22,-0.02,-0.94,1.68,0.49,9.31
45800,-0.22,-0.02,-0.96,2.45,-1.4,5.81
45820,-0.19,-0.02,-0.95,1.89,-3.92,3.43
45840,-0.21,-0.02,-0.98,-1.54,-5.88,0.91
45860,-0.22,-0.01,-0.97,-4.55,-6.72,0.28
45880,-0.22,0.01,-0.98,-4.41,-1.54,0.49
45900,-0.22,0.03,-0.98,-0.91,1.33,-3.01
45920,-0.22,0.03,-0.97,9.87,7.21,-2.73
45940,-0.21,-0.01,-0.94,12.6,2.1,-3.15
45960,-0.2,-0.03,-0.96,11.2,-1.61,-4.76
45980,-0.23,-0.04,-0.97,3.78,-6.09,-2.94
46000,-0.25,-0.01,-0.98,3.08,1.68,3.5
46020,-0.21,-0.02,-0.94,-1.89,-6.65,8.68
46040,-0.24,-0.02,-1.0,-12.25,-10.99,14.77
46060,-0.19,-0.08,-0.96,-10.01,-2.38,0.21
46080,-0.24,0.05,-0.93,7.84,6.86,-0.21
46100,-0.18,-0.0,-0.99,1.89,-12.81,2.59
46120,-0.23,0.01,-1.0,3.57,5.46,0.14
46140,-0.22,-0.02,-0.91,3.43,-1.05,-0.35
46160,-0.21,-0.03,-0.97,3.71,-1.82,-6.23
46180,-0.22,0.01,-0.97,4.41,2.73,-6.16
46200,-0.22,-0.03,-0.95,5.18,3.85,-10.29
46220,-0.21,-0.04,-0.97,3.29,3.5,-12.74
46240,-0.23,0.01,-0.97,5.74,7.98,-13.51
46260,-0.2,0.0,-0.96,9.31,5.25,-10.85
46280,-0.22,-0.0,-0.98,20.93,10.78,-13.16
46300,-0.21,-0.02,-0.9,27.93,16.59,-0.56
46320,-0.18,-0.11,-0.94,10.43,-12.04,-3.36
46340,-0.23,-0.07,-1.07,4.76,-14.77,-6.65
46360,-0.2,0.01,-0.93,0.42,9.73,12.67
46380,-0.24,-0.11,-0.96,-21.98,-28.21,13.79
46400,-0.26,-0.08,-1.07,-32.55,-6.23,8.19
46420,-0.2,0.02,-0.94,-27.37,6.3,6.23
46440,-0.18,0.04,-0.87,-16.66,-6.93,12.53
46460,-0.21,-0.0,-0.93,-10.85,-29.05,14.56
46480,-0.26,0.0,-1.04,-17.22,-20.58,15.19
46500,-0.25,0.0,-1.0,-20.51,-2.66,11.48
46520,-0.22,0.02,-0.94,-15.89,2.03,9.17
46540,-0.22,0.04,-0.94,-11.41,-4.48,7.35
46560,-0.23,0.04,-0.95,-6.3,-9.45,6.65
46580,-0.24,0.03,-0.97,-5.11,-10.57,4.62
46600,-0.25,0.04,-0.97,-4.06,-4.2,5.67
46620,-0.25,0.04,-0.94,0.98,0.63,6.51
46640,-0.26,0.05,-0.96,3.85,-0.84,2.66
46660,-0.23,-0.0,-0.96,3.01,3.36,-3.01
46680,-0.25,0.01,-0.98,8.12,5.88,-15.68
46700,-0.23,0.09,-0.97,14.14,15.82,-24.15
46720,-0.17,0.03,-0.94,20.79,1.82,-13.3
46740,-0.24,0.16,-0.88,34.86,22.19,5.04
46760,-0.3,-0.07,-0.97,3.5,-42.35,20.09
46780,-0.29,-0.1,-1.22,-15.82,4.06,1.05
46800,-0.26,0.04,-0.9,-17.29,27.37,2.31
46820,-0.16,0.0,-0.87,-11.41,5.67,0.91
46840,-0.2,0.03,-0.92,-6.79,-7.07,-0.7
46860,-0.23,0.03,-0.98,-5.32,-12.18,-0.42
46880,-0.22,0.05,-0.97,-2.8,-6.86,2.38
46900,-0.24,0.04,-0.96,-0.7,-2.8,3.22
46920,-0.24,0.04,-0.97,0.14,-2.59,1.19
46940,-0.24,0.05,-0.97,1.05,1.05,2.73
46960,-0.23,0.04,-0.96,3.29,1.33,2.73
46980,-0.23,0.03,-0.96,6.93,4.62,-2.03
47000,-0.21,0.03,-0.96,9.8,3.08,-6.86
47020,-0.22,0.06,-0.97,17.08,10.71,-2.8
47040,-0.22,0.03,-0.92,12.18,-5.25,2.8
47060,-0.23,-0.01,-1.05,6.02,-2.17,3.22
47080,-0.24,-0.0,-0.94,1.47,5.32,5.67
47100,-0.22,-0.03,-0.96,-6.02,-2.59,6.37
47120,-0.22,0.02,-0.96,-5.18,3.29,5.32
47140,-0.2,0.02,-0.96,-5.11,-3.08,1.4
47160,-0.22,0.04,-0.96,-0.42,2.31,-0.42
47180,-0.21,0.03,-0.95,-0.28,-1.54,0.91
47200,-0.23,0.01,-0.96,0.28,0.35,-0.07
47220,-0.23,0.02,-0.95,1.19,-0.56,1.96
47240,-0.22,0.02,-0.96,1.96,-0.35,0.07
47260,-0.21,0.01,-0.96,3.08,-1.54,-2.31
47280,-0.21,0.02,-0.96,5.11,-1.75,-6.65
47300,-0.22,0.03,-0.97,3.99,-4.76,-5.25
47320,-0.22,0.02,-0.97,6.51,1.19,-4.48
47340,-0.2,0.03,-0.96,9.45,1.47,-7.0
47360,-0.22,0.01,-0.96,7.84,-4.13,-3.85
47380,-0.24,-0.02,-1.0,1.61,-4.9,-0.98
47400,-0.22,0.02,-0.98,1.47,2.24,-2.73
47420,-0.19,0.02,-0.94,7.7,0.7,-7.14
47440,-0.23,0.01,-0.97,14.7,3.01,-6.23
47460,-0.21,-0.03,-0.98,9.45,3.36,-3.08
47480,-0.22,-0.05,-0.97,3.36,2.94,-7.07
47500,-0.2,-0.03,-0.94,0.07,-0.56,-10.57
47520,-0.21,0.02,-0.96,-1.47,-3.71,-6.72
47540,-0.24,0.02,-0.97,-2.66,-2.94,-0.14
47560,-0.23,-0.01,-0.98,-2.24,1.96,0.63
47580,-0.23,0.0,-0.95,0.35,5.81,1.96
47600,-0.19,-0.0,-0.95,6.72,3.78,-0.7
47620,-0.21,-0.0,-0.98,7.35,5.04,0.07
47640,-0.21,0.0,-0.99,6.16,3.71,2.03
47660,-0.2,-0.02,-0.92,8.33,2.31,5.67
47680,-0.21,-0.04,-0.98,7.21,-0.28,3.29
47700,-0.22,-0.05,-1.0,0.49,-0.21,0.77
47720,-0.18,-0.02,-0.95,1.68,3.43,-1.26
47740,-0.21,-0.0,-0.97,-0.84,-1.61,3.57
47760,-0.2,-0.02,-0.97,4.83,4.55,-2.66
47780,-0.2,-0.02,-0.96,5.67,1.47,-0.56
47800,-0.2,-0.03,-0.97,4.76,0.77,-2.45
47820,-0.21,-0.04,-0.95,3.29,1.33,-2.1
47840,-0.2,-0.06,-0.97,2.52,0.0,-4.69
47860,-0.18,-0.03,-0.95,1.19,-1.75,-8.61
47880,-0.19,-0.05,-0.95,1.89,-5.67,-9.87
47900,-0.21,-0.02,-1.0,-0.63,-5.32,-6.93
47920,-0.2,-0.03,-0.99,0.21,2.52,-8.61
47940,-0.18,-0.04,-0.94,-0.35,0.35,-11.62
47960,-0.2,-0.01,-0.95,0.35,-4.48,-5.81
47980,-0.21,-0.02,-0.99,0.84,-4.9,-6.72
48000,-0.21,-0.02,-0.96,-2.31,-4.83,-0.63
48020,-0.23,-0.04,-0.96,-10.08,-10.43,2.52
48040,-0.22,-0.03,-0.98,-13.23,-10.85,4.69
48060,-0.22,0.01,-1.0,-8.47,0.21,-0.7
48080,-0.19,-0.02,-0.93,2.87,1.68,-2.17
48100,-0.18,-0.01,-0.95,2.94,-6.72,0.07
48120,-0.21,-0.02,-1.0,1.75,-4.69,-1.4
48140,-0.22,-0.0,-0.97,3.99,4.13,-3.29
48160,-0.2,-0.02,-0.96,-1.47,-3.85,-3.01
48180,-0.2,-0.02,-1.0,0.0,0.91,-8.68
48200,-0.2,-0.03,-0.96,1.82,3.92,-12.74
48220,-0.17,-0.03,-0.95,7.21,3.43,-16.94
48240,-0.18,-0.01,-0.95,9.38,-3.36,-21.35
48260,-0.23,-0.03,-0.99,-0.35,-13.09,-11.2
48280,-0.26,-0.01,-0.97,-1.61,-2.38,-4.76
48300,-0.24,-0.01,-0.96,-8.61,-7.21,8.19
48320,-0.24,-0.04,-0.98,-13.86,-9.1,7.49
48340,-0.24,-0.02,-0.97,-10.92,-3.99,6.44
48360,-0.2,0.02,-0.95,-2.52,1.47,3.78
48380,-0.2,0.0,-0.96,2.31,-2.87,7.07
48400,-0.23,0.0,-0.99,5.6,0.98,5.74
48420,-0.18,-0.0,-0.97,6.02,1.82,6.3
48440,-0.22,-0.03,-0.97,4.48,2.59,0.0
48460,-0.21,-0.07,-0.96,-0.91,-1.33,-2.45
48480,-0.21,-0.04,-0.97,-3.5,0.14,-6.16
48500,-0.19,-0.01,-0.95,-1.19,-0.98,-9.8
48520,-0.22,-0.0,-0.95,3.57,-2.87,-8.26
48540,-0.23,0.0,-0.99,6.16,-2.38,-10.22
48560,-0.22,-0.02,-0.98,7.63,3.5,-7.91
48580,-0.23,-0.03,-0.94,5.25,-2.8,-5.88
48600,-0.22,-0.04,-0.98,-1.26,-5.32,-1.26
48620,-0.24,-0.02,-0.98,-5.11,-0.28,2.45
48640,-0.23,-0.01,-0.95,-7.56,-2.94,6.16
48660,-0.22,-0.0,-0.98,-9.03,-4.41,9.66
48680,-0.23,-0.0,-0.97,-7.63,1.47,11.62
48700,-0.23,0.02,-0.97,-1.4,1.05,8.68
48720,-0.19,0.01,-0.94,11.06,8.26,1.12
48740,-0.19,-0.05,-0.94,10.64,0.0,0.42
48760,-0.22,-0.03,-0.97,4.76,-2.73,3.36
48780,-0.22,-0.04,-0.99,-2.38,-4.76,3.36
48800,-0.21,-0.01,-0.97,-4.69,-0.07,2.45
48820,-0.22,-0.0,-0.97,-3.71,0.77,1.82
48840,-0.2,-0.02,-0.95,2.45,4.48,-0.77
48860,-0.2,-0.02,-0.95,4.06,-0.49,-3.78
48880,-0.21,-0.0,-0.96,6.58,2.45,-2.8
48900,-0.21,-0.02,-0.97,4.06,0.14,-2.1
48920,-0.2,-0.02,-0.98,3.15,0.49,-4.69
48940,-0.22,0.0,-0.97,4.55,2.59,-1.68
48960,-0.21,-0.02,-0.96,3.22,-1.54,-2.94
48980,-0.19,-0.03,-0.96,2.87,-0.35,-2.94
49000,-0.2,-0.03,-0.98,3.01,-2.38,-7.84
49020,-0.19,-0.04,-0.97,7.77,3.57,-12.32
49040,-0.17,-0.03,-0.97,17.85,5.88,-11.06
49060,-0.18,-0.05,-0.93,12.46,-9.94,-14.49
49080,-0.22,-0.07,-1.05,9.31,-3.15,-16.45
49100,-0.16,-0.03,-0.93,10.92,10.78,-16.38
49120,-0.17,-0.03,-0.94,3.71,-5.95,-15.54
49140,-0.26,-0.06,-1.01,-2.59,-8.19,-7.35
49160,-0.23,-0.05,-1.03,-1.05,1.54,-14.07
49180,-0.19,-0.04,-0.96,-0.84,3.71,-18.13
49200,-0.22,-0.1,-0.89,2.17,-3.08,-11.69
49220,-0.24,-0.09,-0.91,-0.84,-21.0,1.61
49240,-0.22,-0.05,-0.95,3.64,-9.87,7.42
49260,-0.28,-0.05,-0.96,-13.58,-31.92,15.68
49280,-0.29,-0.05,-1.1,-23.03,-10.64,17.99
49300,-0.21,-0.0,-0.95,-18.41,6.72,15.26
49320,-0.22,0.02,-0.92,-17.29,-9.66,23.8
49340,-0.22,-0.02,-0.98,-17.08,-15.26,21.35
49360,-0.25,0.01,-1.0,-10.01,0.42,21.98
49380,-0.22,0.01,-0.96,-11.83,-2.31,20.23
49400,-0.24,0.01,-0.96,-10.36,-3.01,19.11
49420,-0.23,0.01,-0.96,-8.26,-0.42,17.36
49440,-0.23,0.01,-0.95,-4.69,0.42,16.24
49460,-0.22,0.0,-0.97,-1.12,-0.56,11.13
49480,-0.23,0.05,-0.96,1.68,6.37,15.89
49500,-0.21,-0.02,-0.95,-1.61,-4.62,14.0
49520,-0.23,0.0,-0.96,0.28,0.21,10.29
49540,-0.23,0.01,-0.96,-4.34,-3.64,9.87
49560,-0.23,0.01,-0.97,-4.9,-0.91,6.79
49580,-0.23,0.04,-0.95,-1.96,0.42,2.03
49600,-0.22,0.03,-0.96,0.28,-1.19,-0.98
49620,-0.23,-0.0,-0.95,-0.07,-1.54,-3.57
49640,-0.25,0.02,-0.98,2.38,1.47,-18.76
49660,-0.24,0.11,-0.88,11.55,18.76,-6.3
49680,-0.22,0.1,-0.97,22.68,16.31,0.35
49700,-0.16,0.06,-0.88,29.4,25.97,9.38
49720,-0.22,-0.12,-0.92,12.18,-24.85,7.35
49740,-0.24,-0.1,-1.08,-6.09,-8.47,-0.07
49760,-0.22,0.02,-0.95,-16.1,-1.26,1.19
49780,-0.22,0.04,-0.96,-14.56,-2.45,2.03
49800,-0.22,0.06,-0.97,-8.89,1.19,5.11
49820,-0.21,0.03,-0.96,-4.2,-0.91,3.29
49840,-0.23,0.04,-0.95,-0.07,-2.1,3.43
49860,-0.22,0.03,-0.96,1.05,-3.57,5.11
49880,-0.22,0.02,-0.96,3.92,-0.14,2.1
49900,-0.22,0.01,-0.96,3.22,-0.98,-0.35
49920,-0.23,0.02,-0.97,1.82,-3.71,-0.14
49940,-0.21,0.03,-0.97,2.03,-0.28,-0.7
49960,-0.21,0.02,-0.96,1.47,-1.33,-2.38
49980,-0.23,0.01,-0.95,0.49,-2.94,-1.05
50000,-0.21,0.02,-0.95,3.15,-3.5,-2.17
50020,-0.21,0.04,-1.0,5.11,-2.24,-1.75
50040,-0.22,-0.02,-0.97,-8.26,-7.14,-1.96
50060,-0.24,-0.05,-0.92,-9.31,-12.04,-2.73
50080,-0.23,0.06,-0.98,-2.8,-0.91,-3.85
50100,-0.23,0.08,-0.96,-4.83,-5.53,4.2
50120,-0.23,0.04,-0.98,2.03,-3.01,2.24
50140,-0.23,0.02,-0.96,2.17,-1.96,1.61
50160,-0.24,0.01,-0.96,1.96,-1.54,0.35
50180,-0.22,0.03,-0.95,1.82,-0.63,1.05
50200,-0.24,0.02,-0.98,1.54,-3.01,-2.94
50220,-0.22,0.06,-0.98,4.83,0.91,-0.7
50240,-0.22,0.04,-0.94,9.94,3.01,-3.92
50260,-0.23,-0.01,-0.95,13.23,2.52,-7.21
50280,-0.21,-0.02,-0.96,13.44,2.8,-9.31
50300,-0.22,0.01,-0.97,11.83,2.87,-9.94
50320,-0.23,0.0,-0.97,9.66,1.26,-11.2
50340,-0.23,-0.01,-0.96,10.92,1.54,-13.16
50360,-0.24,0.01,-0.98,9.45,1.68,-9.17
50380,-0.24,-0.0,-0.99,4.62,2.52,-6.72
50400,-0.24,-0.01,-0.95,0.49,2.94,-0.21
50420,-0.23,-0.03,-0.96,0.91,-0.98,-1.47
50440,-0.22,0.01,-0.96,-2.1,-0.84,5.74
50460,-0.24,-0.03,-0.97,0.49,0.77,3.78
50480,-0.21,-0.02,-0.93,9.52,4.55,0.42
50500,-0.2,-0.01,-0.99,9.38,1.4,-1.33
50520,-0.2,-0.02,-0.96,3.71,0.28,2.66
50540,-0.22,-0.04,-0.98,0.07,0.28,0.56
50560,-0.21,-0.03,-0.94,-0.84,4.76,1.4
50580,-0.21,-0.02,-0.95,-1.33,0.49,-1.68
50600,-0.22,-0.03,-0.96,0.28,-0.42,-2.45
50620,-0.22,-0.01,-0.97,0.42,-0.42,-0.28
50640,-0.21,-0.02,-0.97,1.05,-1.61,-3.78
50660,-0.21,-0.01,-0.97,4.76,-2.45,-6.72
50680,-0.21,-0.0,-0.97,6.79,2.59,-1.61
50700,-0.21,0.0,-0.98,6.51,0.56,0.0
50720,-0.2,-0.04,-0.98,5.53,3.22,-1.75
50740,-0.2,-0.01,-0.94,3.15,2.17,6.09
50760,-0.22,-0.07,-0.95,-5.46,-10.85,6.44
50780,-0.24,-0.02,-1.05,-10.64,-6.09,2.94
50800,-0.2,0.02,-1.0,-3.99,15.26,4.62
50820,-0.16,-0.03,-0.86,14.91,6.65,-17.64
50840,-0.17,-0.07,-0.95,16.73,-5.11,-3.29
50860,-0.21,-0.05,-1.0,7.14,-4.69,-4.76
50880,-0.22,-0.04,-1.02,-0.21,0.49,-2.87
50900,-0.2,-0.01,-0.97,-0.84,12.04,-1.75
50920,-0.18,-0.04,-0.94,-0.35,2.45,-7.07
50940,-0.19,-0.07,-0.95,2.45,0.14,-10.5
50960,-0.19,-0.03,-0.97,6.02,-1.61,-11.41
50980,-0.2,-0.03,-0.96,4.83,-0.49,-11.97
51000,-0.22,-0.03,-0.98,9.1,2.59,-11.13
51020,-0.2,-0.02,-0.98,9.52,2.1,-6.44
51040,-0.2,-0.06,-0.88,3.92,-7.35,12.04
51060,-0.24,-0.12,-1.04,-14.0,-22.54,5.67
51080,-0.23,-0.05,-0.99,-23.66,-2.31,1.89
51100,-0.2,-0.01,-0.96,-19.53,-4.62,1.4
51120,-0.17,0.01,-0.93,-3.92,0.42,1.61
51140,-0.2,-0.01,-0.97,7.7,-6.86,0.98
51160,-0.18,-0.03,-1.01,12.74,-0.98,-6.02
51180,-0.2,-0.01,-0.95,10.64,2.66,-3.15
51200,-0.22,-0.07,-0.98,7.21,-1.96,-5.04
51220,-0.22,-0.04,-0.97,2.24,3.71,-1.4
51240,-0.21,-0.03,-1.0,-1.75,4.48,-2.31
51260,-0.19,-0.06,-0.94,2.45,5.88,-3.92
51280,-0.18,-0.05,-0.94,5.18,1.82,-8.4
51300,-0.19,-0.06,-0.94,7.14,1.26,-7.84
51320,-0.21,-0.06,-0.95,8.19,-1.26,-5.81
51340,-0.2,-0.05,-1.0,2.66,-4.27,-8.33
51360,-0.18,-0.06,-0.94,3.57,2.38,-10.78
51380,-0.15,-0.06,-0.92,4.97,-10.78,-18.06
51400,-0.24,-0.06,-1.01,1.4,-8.89,-15.68
51420,-0.18,-0.04,-1.01,0.14,-4.76,-22.96
51440,-0.23,-0.02,-0.96,1.96,-3.43,-10.36
51460,-0.23,-0.06,-0.94,-0.49,-10.43,-1.89
51480,-0.25,-0.12,-0.93,-12.39,-22.26,4.13
51500,-0.26,-0.11,-1.05,-28.77,-21.21,0.63
51520,-0.22,-0.0,-0.99,-24.15,1.33,-3.36
51540,-0.23,0.04,-0.91,-14.49,-3.57,2.45
51560,-0.22,-0.01,-0.95,-10.15,-12.32,9.1
51580,-0.25,-0.02,-1.0,-6.79,-7.56,4.41
51600,-0.23,0.0,-0.94,4.83,9.66,3.78
51620,-0.23,-0.04,-0.93,3.43,-5.39,4.13
51640,-0.23,-0.06,-0.99,-0.7,-2.87,0.7
51660,-0.23,-0.0,-0.97,-0.91,-0.28,2.03
51680,-0.21,0.02,-0.95,-4.41,-4.83,9.52
51700,-0.22,-0.04,-0.97,-9.94,-14.0,11.34
51720,-0.25,-0.02,-0.99,-11.2,-7.91,5.39
51740,-0.24,0.02,-0.94,-7.98,-3.57,8.75
51760,-0.25,0.0,-0.94,-10.36,-12.81,10.78
51780,-0.26,-0.04,-0.98,-12.74,-8.75,6.51
51800,-0.26,-0.04,-0.97,-15.54,-4.41,-13.09
51820,-0.24,0.07,-0.99,-5.67,9.8,-18.34
51840,-0.25,0.12,-0.93,7.84,8.82,-3.92
51860,-0.19,0.11,-0.82,26.46,9.03,14.14
51880,-0.26,-0.05,-0.98,13.44,-24.64,21.0
51900,-0.29,-0.08,-1.14,-5.74,-4.06,6.09
51920,-0.28,0.01,-0.97,-13.37,15.19,2.17
51940,-0.19,0.03,-0.89,-9.38,8.82,1.61
51960,-0.22,0.01,-0.92,-4.2,-7.28,2.31
51980,-0.26,0.02,-0.99,-1.96,-5.46,1.05
52000,-0.24,0.02,-0.95,2.1,2.1,-1.4
52020,-0.24,0.02,-0.93,4.06,-2.8,-3.71
52040,-0.25,0.02,-0.96,6.86,0.21,-3.43
52060,-0.25,0.01,-0.95,4.2,-3.57,-1.26
52080,-0.25,-0.0,-0.98,-0.14,-3.01,-2.73
52100,-0.25,0.03,-0.98,-0.98,2.66,-1.96
52120,-0.24,0.04,-0.97,-0.91,2.24,2.45
52140,-0.23,0.03,-0.93,5.39,5.95,0.35
52160,-0.24,-0.01,-0.94,2.45,-7.07,3.08
52180,-0.26,-0.01,-1.0,1.89,0.77,1.54
52200,-0.23,0.03,-0.94,8.4,9.94,0.07
52220,-0.21,-0.01,-0.92,10.22,1.75,0.14
52240,-0.23,-0.03,-0.98,8.89,-1.54,-1.75
52260,-0.23,-0.01,-0.97,8.4,5.74,-5.18
52280,-0.23,0.01,-0.94,8.75,1.96,-1.96
52300,-0.23,0.01,-0.96,11.2,5.04,-1.05
52320,-0.24,-0.02,-0.95,2.8,-0.98,5.67
52340,-0.25,-0.04,-0.98,-6.44,-0.56,6.44
52360,-0.23,0.0,-0.96,-5.11,0.35,5.25
52380,-0.22,0.06,-0.97,5.18,7.49,5.67
52400,-0.22,0.04,-0.95,11.13,4.34,12.11
52420,-0.23,-0.04,-1.0,11.69,3.78,6.72
52440,-0.21,-0.04,-0.95,9.94,7.91,9.17
52460,-0.2,-0.05,-0.93,9.24,0.7,5.18
52480,-0.21,-0.07,-0.96,-3.71,-11.83,6.65
52500,-0.23,-0.04,-0.98,-5.32,-1.61,3.29
52520,-0.18,0.0,-0.95,-4.06,-1.89,-1.68
52540,-0.22,0.01,-0.96,-5.46,-7.14,3.78
52560,-0.24,0.01,-1.01,-2.66,-2.66,4.62
52580,-0.22,0.02,-0.96,2.59,4.27,3.64
52600,-0.21,0.0,-0.94,7.07,1.4,3.01
52620,-0.23,-0.02,-0.96,8.33,0.35,3.15
52640,-0.22,-0.03,-0.96,9.94,1.61,1.4
52660,-0.21,0.0,-0.95,14.07,5.95,0.7
52680,-0.21,-0.03,-0.98,9.59,-0.28,1.96
52700,-0.22,-0.07,-0.98,7.07,4.55,-1.82
52720,-0.21,-0.04,-0.95,2.94,2.1,2.8
52740,-0.19,-0.06,-0.93,0.49,-7.42,-0.21
52760,-0.22,-0.06,-1.0,-9.52,-11.69,2.87
52780,-0.24,-0.03,-0.99,-17.92,-4.2,7.07
52800,-0.21,-0.0,-0.96,-10.64,1.82,1.68
52820,-0.21,0.05,-0.95,2.38,1.61,-0.28
52840,-0.21,0.01,-0.95,7.63,-4.55,-1.82
52860,-0.21,-0.04,-0.98,10.64,-3.08,-5.46
52880,-0.21,-0.01,-0.98,10.5,3.99,-8.96
52900,-0.2,-0.03,-0.94,3.57,-1.19,-5.67
52920,-0.23,-0.04,-0.99,0.07,-2.1,-5.95
52940,-0.22,-0.02,-0.98,3.64,2.87,-13.23
52960,-0.19,-0.02,-0.97,12.11,9.66,-14.63
52980,-0.2,-0.09,-0.96,26.53,9.94,-11.9
53000,-0.15,-0.06,-0.9,17.71,-3.92,-24.08
53020,-0.18,-0.1,-0.94,0.21,-15.96,-17.08
53040,-0.25,-0.09,-1.03,-13.09,-5.39,-17.36
53060,-0.19,-0.06,-1.0,-13.65,4.41,-37.73
53080,-0.22,0.07,-0.97,4.41,15.75,-26.53
53100,-0.26,0.04,-0.94,15.61,9.1,-7.49
53120,-0.22,-0.08,-0.97,11.13,-12.46,-0.91
53140,-0.25,-0.16,-0.98,6.79,-2.17,-1.26
53160,-0.23,-0.07,-0.85,5.88,6.79,16.38
53180,-0.27,-0.1,-0.98,-20.93,-34.44,31.01
53200,-0.28,-0.08,-1.14,-33.46,-9.59,23.94
53220,-0.22,0.04,-0.95,-24.29,11.27,21.7
53240,-0.18,0.04,-0.89,-9.94,1.54,23.66
53260,-0.17,0.0,-0.92,-0.14,-10.15,29.82
53280,-0.21,-0.03,-1.0,-1.54,-11.34,24.99
53300,-0.21,-0.07,-0.99,-3.99,-1.54,16.59
53320,-0.2,-0.06,-0.96,-8.68,-4.27,11.83
53340,-0.19,-0.01,-0.98,-9.66,-4.83,3.43
53360,-0.21,0.04,-0.95,-4.27,-1.4,3.71
53380,-0.22,-0.01,-0.94,-5.18,-8.12,5.6
53400,-0.26,-0.02,-0.97,-6.72,-6.16,5.74
53420,-0.23,0.0,-0.97,-7.77,-1.4,4.48
53440,-0.23,0.0,-0.94,-9.73,-4.76,4.83
53460,-0.23,0.01,-0.96,-7.98,-5.18,0.56
53480,-0.23,0.03,-0.94,-4.55,-1.12,0.56
53500,-0.23,0.02,-0.94,-1.4,-4.9,1.33
53520,-0.24,0.0,-0.96,1.96,-2.52,-7.98
53540,-0.21,-0.01,-0.97,3.71,0.98,-17.43
53560,-0.25,0.04,-1.0,5.11,6.16,-21.77
53580,-0.21,0.05,-0.96,11.62,10.64,-13.37
53600,-0.24,0.05,-0.8,11.48,-12.25,4.83
53620,-0.3,-0.05,-1.1,-8.47,-34.58,8.61
53640,-0.28,0.0,-1.12,-19.32,15.4,7.21
53660,-0.24,0.07,-0.9,-14.84,16.94,10.64
53680,-0.19,0.04,-0.91,-6.23,1.96,8.12
53700,-0.22,0.01,-0.94,-5.39,-8.47,6.44
53720,-0.24,0.02,-0.98,-6.72,-5.32,5.6
53740,-0.23,0.05,-0.95,-4.62,-0.21,5.04
53760,-0.24,0.03,-0.94,-2.66,-4.06,4.97
53780,-0.24,0.04,-0.96,-0.7,-3.22,2.73
53800,-0.25,0.04,-0.96,-2.94,-6.09,4.06
53820,-0.25,0.04,-0.98,-0.84,-3.01,3.15
53840,-0.25,0.03,-0.93,0.14,1.47,3.64
53860,-0.24,0.02,-0.94,4.13,-0.63,-2.1
53880,-0.22,0.01,-0.97,-1.96,-5.74,-18.9
53900,-0.22,0.12,-1.01,17.29,17.36,-6.86
53920,-0.21,0.12,-0.82,14.0,1.89,8.89
53940,-0.27,-0.01,-1.04,12.11,-18.69,10.99
53960,-0.29,0.01,-1.08,2.17,10.57,9.31
53980,-0.27,0.02,-0.97,-10.5,8.68,14.98
54000,-0.22,0.02,-0.93,-10.08,10.92,14.91
54020,-0.2,0.05,-0.92,-1.54,5.6,10.85
54040,-0.21,0.03,-0.95,1.4,-3.5,7.98
54060,-0.21,0.03,-0.99,2.03,0.35,5.04
54080,-0.22,0.05,-0.95,0.42,1.96,4.97
54100,-0.22,0.04,-0.97,0.91,-1.05,4.83
54120,-0.22,0.05,-0.96,4.2,3.71,6.23
54140,-0.21,0.02,-0.94,2.38,-3.01,5.88
54160,-0.22,0.04,-0.96,4.13,-0.14,3.29
54180,-0.21,0.04,-0.96,4.9,-0.63,3.22
54200,-0.22,0.03,-0.95,6.16,-0.07,1.75
54220,-0.23,0.01,-0.96,5.11,3.01,-5.32
54240,-0.23,0.08,-1.02,10.15,6.02,3.08
54260,-0.18,0.07,-0.96,16.73,21.84,5.53
54280,-0.19,-0.09,-0.81,5.11,-12.95,6.23
54300,-0.22,-0.09,-1.07,1.61,-14.42,-2.8
54320,-0.2,0.05,-0.99,-3.15,4.55,-6.44
54340,-0.19,0.08,-0.97,-5.04,-4.76,-1.68
54360,-0.23,0.06,-0.98,-2.52,-0.63,3.5
54380,-0.23,0.02,-0.97,-0.7,-1.26,4.76
54400,-0.21,0.03,-0.96,-1.82,-1.33,5.46
54420,-0.21,0.01,-0.96,-7.0,-6.65,4.83
54440,-0.23,0.02,-0.97,-6.16,-0.84,3.36
54460,-0.22,0.05,-0.94,-5.95,-0.98,5.46
54480,-0.21,0.03,-0.96,-6.79,-5.81,2.73
54500,-0.22,0.04,-0.98,-6.79,-3.71,3.08
54520,-0.22,0.05,-0.96,-3.78,-1.75,2.8
54540,-0.21,0.04,-0.95,-4.06,-6.72,2.24
54560,-0.22,0.04,-0.99,-4.69,-4.48,3.78
54580,-0.22,0.04,-0.96,-9.24,-6.58,7.42
54600,-0.21,0.05,-0.95,-9.87,-4.83,7.84
54620,-0.22,0.07,-0.96,-8.12,-7.84,6.02
54640,-0.25,0.09,-0.97,-12.39,-5.25,16.31
54660,-0.27,0.08,-1.0,-22.75,-9.8,21.28
54680,-0.26,0.07,-1.0,-27.58,3.01,25.2
54700,-0.24,0.1,-0.95,-29.33,6.09,26.46
54720,-0.22,0.09,-0.94,-24.71,5.18,25.55
54740,-0.2,0.11,-0.94,-19.95,6.58,20.16
54760,-0.21,0.13,-0.96,-15.4,9.38,16.66
54780,-0.23,0.17,-0.97,-12.6,14.7,17.85
54800,-0.22,0.17,-0.95,-15.96,11.69,17.43
54820,-0.19,0.16,-0.9,-10.99,10.15,9.24
54840,-0.16,0.15,-0.92,0.35,1.4,-1.54
54860,-0.16,0.15,-0.96,2.87,-1.19,-9.87
54880,-0.17,0.12,-0.95,-4.27,-7.14,-13.86
54900,-0.16,0.14,-0.96,-6.16,-7.07,-17.78
54920,-0.19,0.19,-0.95,-9.73,-7.0,-8.05
54940,-0.22,0.19,-0.97,-11.34,-5.67,-3.71
54960,-0.2,0.19,-0.95,-11.69,-3.29,0.21
54980,-0.21,0.18,-0.94,-12.67,-5.32,1.47
55000,-0.21,0.19,-0.95,-9.87,-5.18,2.03
55020,-0.2,0.19,-0.96,-6.09,-2.52,1.05
55040,-0.2,0.19,-0.94,-3.08,-1.89,-0.35
55060,-0.21,0.18,-0.91,-1.61,-3.85,3.64
55080,-0.21,0.2,-0.95,1.89,-6.37,-0.21
55100,-0.24,0.21,-0.95,0.84,-5.67,3.5
55120,-0.23,0.2,-0.96,0.14,-2.59,4.69
55140,-0.22,0.2,-0.95,-0.07,0.49,7.28
55160,-0.23,0.23,-0.95,2.17,3.57,14.14
55180,-0.22,0.21,-0.94,-0.14,1.05,26.46
55200,-0.2,0.17,-0.96,-1.33,0.35,18.48
55220,-0.21,0.18,-0.93,-1.05,2.38,18.34
55240,-0.21,0.21,-0.94,-1.96,0.07,22.68
55260,-0.19,0.18,-0.95,-3.64,1.12,22.68
55280,-0.22,0.2,-0.95,-2.45,2.52,22.19
55300,-0.19,0.21,-0.96,-4.48,2.52,19.46
55320,-0.19,0.21,-0.96,-8.19,3.22,20.02
55340,-0.15,0.17,-0.94,-8.96,5.04,11.13
55360,-0.17,0.22,-0.92,-8.82,1.89,3.36
55380,-0.14,0.22,-0.94,-9.73,-4.55,-5.53
55400,-0.18,0.27,-0.94,-5.04,-1.12,-1.4
55420,-0.18,0.25,-0.94,-3.29,-3.36,-2.03
55440,-0.18,0.25,-0.94,0.35,-3.71,-4.13
55460,-0.2,0.25,-0.95,1.12,-2.94,-2.66
55480,-0.19,0.24,-0.94,1.05,-0.91,-1.75
55500,-0.19,0.23,-0.94,3.92,0.98,-2.38
55520,-0.19,0.23,-0.95,6.3,0.21,-4.13
55540,-0.18,0.25,-0.96,7.56,4.13,-1.89
55560,-0.17,0.23,-0.91,7.7,-1.19,0.14
55580,-0.2,0.21,-0.96,6.86,-2.8,-1.19
55600,-0.19,0.21,-0.96,3.29,1.12,-0.56
55620,-0.18,0.21,-0.94,2.38,0.56,-1.61
55640,-0.17,0.22,-0.93,1.26,-1.12,-1.26
55660,-0.18,0.2,-0.95,1.26,-3.85,-3.43
55680,-0.19,0.2,-0.97,-0.42,-0.56,-3.22
55700,-0.18,0.21,-0.93,-1.4,-0.35,-2.8
55720,-0.18,0.22,-0.93,-0.98,-2.17,-2.66
55740,-0.19,0.23,-0.94,-0.07,-4.13,-3.43
55760,-0.19,0.22,-0.95,1.47,-3.78,-4.27
55780,-0.19,0.23,-0.95,0.63,-1.47,-2.31
55800,-0.19,0.22,-0.94,-0.49,-1.12,-0.84
55820,-0.2,0.23,-0.95,0.21,-0.14,0.0
55840,-0.19,0.23,-0.95,0.56,0.84,1.61
55860,-0.19,0.22,-0.94,1.05,1.54,1.12
55880,-0.2,0.22,-0.95,0.49,1.68,1.12
55900,-0.18,0.22,-0.94,0.91,2.73,0.7
55920,-0.18,0.21,-0.94,-0.7,-1.68,-0.49
55940,-0.2,0.22,-0.95,-0.63,2.17,0.91
55960,-0.19,0.23,-0.94,-0.56,3.64,3.57
55980,-0.18,0.22,-0.94,-0.84,2.17,4.9
56000,-0.18,0.22,-0.94,0.21,1.4,2.87
56020,-0.18,0.22,-0.94,1.82,-0.56,2.03
56040,-0.17,0.24,-0.94,4.13,-0.07,1.89
56060,-0.17,0.23,-0.95,5.74,-0.35,2.59
56080,-0.17,0.22,-0.94,9.1,-0.63,0.0
56100,-0.17,0.22,-0.95,9.94,-1.96,-1.26
56120,-0.19,0.22,-0.95,10.78,2.87,3.92
56140,-0.17,0.2,-0.93,10.36,-0.7,2.94
56160,-0.17,0.2,-0.96,7.56,-3.08,1.89
56180,-0.18,0.17,-0.96,3.64,-0.77,1.82
56200,-0.18,0.18,-0.96,-0.56,-1.54,1.05
56220,-0.18,0.21,-0.94,-3.71,-2.24,-0.07
56240,-0.18,0.19,-0.94,-0.7,-2.66,2.24
56260,-0.19,0.22,-0.97,-1.33,-1.75,-0.7
56280,-0.17,0.2,-0.93,-1.96,-1.61,0.28
56300,-0.17,0.2,-0.96,-2.8,-2.52,0.35
56320,-0.17,0.21,-0.94,-2.03,-4.55,-0.07
56340,-0.18,0.22,-0.96,0.21,-3.01,-1.4
56360,-0.19,0.22,-0.95,0.42,-3.43,1.75
56380,-0.18,0.2,-0.95,0.35,-2.94,1.47
56400,-0.18,0.21,-0.95,0.77,-1.82,1.47
56420,-0.18,0.21,-0.95,0.42,-1.89,0.77
56440,-0.18,0.21,-0.95,0.0,-2.59,1.33
56460,-0.19,0.21,-0.95,0.0,-1.26,2.31
56480,-0.19,0.21,-0.95,0.0,-0.91,2.17
56500,-0.18,0.21,-0.94,0.56,-0.77,1.19
56520,-0.18,0.21,-0.95,0.77,-2.1,2.17
56540,-0.18,0.21,-0.95,-0.21,-1.33,3.08
56560,-0.18,0.21,-0.94,0.63,-0.28,2.1
56580,-0.18,0.22,-0.94,0.63,-3.01,2.24
56600,-0.18,0.21,-0.94,1.26,-2.24,2.1
56620,-0.18,0.21,-0.94,2.1,-4.41,-0.21
56640,-0.19,0.21,-0.96,1.33,-3.29,1.54
56660,-0.18,0.2,-0.96,1.4,-0.91,1.61
56680,-0.18,0.21,-0.93,1.61,-2.87,-0.35
56700,-0.2,0.22,-0.95,0.63,-3.08,2.73
56720,-0.2,0.21,-0.95,1.33,-1.68,-0.28
56740,-0.2,0.23,-0.96,1.4,3.5,2.17
56760,-0.17,0.23,-0.93,3.36,1.89,2.59
56780,-0.17,0.21,-0.94,4.48,-2.66,-0.98
56800,-0.18,0.2,-0.95,4.13,-2.8,-0.42
56820,-0.19,0.2,-0.95,3.29,-2.03,-2.17
56840,-0.19,0.2,-0.96,0.98,-0.49,-1.26
56860,-0.18,0.21,-0.95,0.42,-0.91,-2.1
56880,-0.18,0.21,-0.95,1.54,-0.77,-1.61
56900,-0.19,0.2,-0.95,1.26,-1.61,-0.98
56920,-0.19,0.21,-0.95,1.96,0.21,-0.91
56940,-0.18,0.2,-0.95,1.82,-0.28,-0.91
56960,-0.19,0.2,-0.94,1.75,-1.54,-1.26
56980,-0.19,0.21,-0.95,2.45,-0.42,-0.56
57000,-0.19,0.21,-0.94,2.59,-0.91,0.77
57020,-0.19,0.2,-0.96,2.8,-0.49,0.56
57040,-0.18,0.19,-0.94,1.47,-0.56,-0.77
57060,-0.18,0.19,-0.94,1.12,-2.31,-1.4
57080,-0.19,0.19,-0.96,0.21,-2.17,-2.94
57100,-0.19,0.2,-0.95,-0.49,-2.03,-4.55
57120,-0.17,0.19,-0.93,-0.7,-4.83,-5.53
57140,-0.19,0.2,-0.94,0.07,-7.98,-7.56
57160,-0.21,0.23,-0.95,4.48,-3.85,-4.13
57180,-0.2,0.22,-0.95,5.53,-2.59,-0.91
57200,-0.2,0.18,-0.94,6.23,-2.17,-1.96
57220,-0.17,0.17,-0.94,5.39,-4.83,-5.67
57240,-0.19,0.19,-0.95,4.2,-10.85,-10.36
57260,-0.21,0.21,-0.94,9.1,-5.46,-6.72
57280,-0.2,0.17,-0.94,11.27,-7.28,-5.6
57300,-0.2,0.17,-0.96,15.54,-5.11,-17.85
57320,-0.21,0.19,-0.92,19.11,-2.24,-14.98
57340,-0.22,0.19,-0.96,15.68,-12.74,-9.73
57360,-0.24,0.2,-0.95,23.73,1.26,0.0
57380,-0.21,0.16,-0.92,25.83,-7.49,-3.78
57400,-0.22,0.14,-0.96,21.84,-13.58,-4.69
57420,-0.23,0.11,-0.99,19.32,-5.88,-1.68
57440,-0.23,0.1,-0.95,13.44,-4.48,0.07
57460,-0.23,0.08,-0.97,8.05,-6.02,-0.77
57480,-0.21,0.05,-0.96,0.56,-5.95,-6.02
57500,-0.23,0.07,-1.0,-2.66,0.14,-10.15
57520,-0.23,0.13,-0.95,-2.31,4.55,-11.34
57540,-0.23,0.16,-0.95,0.42,2.59,-10.22
57560,-0.26,0.17,-0.95,5.88,1.61,-3.5
57580,-0.27,0.14,-0.96,7.42,4.9,6.51
57600,-0.25,0.12,-0.95,8.54,5.25,7.56
57620,-0.22,0.08,-0.94,7.07,0.63,4.83
57640,-0.22,0.08,-0.95,3.64,0.63,2.45
57660,-0.2,0.08,-0.96,2.66,1.33,-0.7
57680,-0.2,0.09,-0.96,-1.05,-1.82,-1.54
57700,-0.22,0.09,-0.98,-3.43,-2.1,-4.69
57720,-0.2,0.08,-0.95,-5.25,-0.98,-10.92
57740,-0.2,0.07,-0.94,-6.86,-5.32,-16.1
57760,-0.22,0.1,-0.94,-4.13,-6.93,-20.58
57780,-0.23,0.13,-0.95,1.47,-3.85,-20.09
57800,-0.24,0.15,-0.96,10.85,4.06,-13.93
57820,-0.24,0.14,-0.94,17.15,4.97,-9.87
57840,-0.22,0.1,-0.97,21.77,5.32,-9.38
57860,-0.24,0.12,-0.97,27.23,12.04,-6.51
57880,-0.23,0.12,-0.96,27.37,15.12,1.89
57900,-0.22,0.05,-0.97,23.1,8.47,2.17
57920,-0.23,0.01,-0.98,20.44,11.62,1.68
57940,-0.21,0.03,-0.96,16.03,12.53,3.99
57960,-0.19,0.02,-0.95,15.12,10.43,4.76
57980,-0.19,-0.0,-0.95,6.58,-2.45,7.7
58000,-0.21,-0.02,-1.03,-2.8,-0.7,4.13
58020,-0.18,0.01,-0.96,-3.36,8.89,1.19
58040,-0.16,0.04,-0.94,2.73,5.88,-3.64
58060,-0.17,0.03,-0.94,12.04,0.0,-9.1
58080,-0.16,0.01,-0.98,10.15,-3.92,-8.96
58100,-0.17,0.0,-0.98,7.28,-2.66,-11.62
58120,-0.18,0.01,-0.96,3.15,-3.15,-13.93
58140,-0.18,0.0,-0.98,2.66,-4.97,-15.05
58160,-0.21,0.05,-0.97,6.58,1.05,-12.18
58180,-0.19,0.03,-0.98,7.07,1.26,-11.62
58200,-0.18,0.01,-0.96,7.7,5.6,-14.28
58220,-0.18,0.01,-0.94,12.04,-2.03,-17.85
58240,-0.15,0.01,-0.95,24.43,5.95,-15.89
58260,-0.24,0.0,-0.95,11.27,-11.55,-3.29
58280,-0.27,-0.04,-1.07,0.49,-7.14,9.66
58300,-0.18,-0.05,-0.96,-6.16,5.25,12.6
58320,-0.15,-0.05,-0.92,-11.62,-7.42,5.53
58340,-0.19,-0.02,-0.98,-11.97,-8.4,2.66
58360,-0.18,0.07,-0.96,-3.01,1.82,3.36
58380,-0.17,0.04,-0.96,4.55,-10.01,3.01
58400,-0.21,0.03,-0.99,11.34,-1.26,5.6
58420,-0.2,-0.0,-0.98,12.46,-0.77,3.92
58440,-0.2,0.01,-1.0,14.21,7.14,-0.07
58460,-0.16,-0.0,-0.94,16.1,8.4,-0.84
58480,-0.17,-0.04,-0.93,17.85,-1.89,-5.46
58500,-0.19,-0.06,-0.96,14.14,-4.83,-9.38
58520,-0.22,-0.02,-0.95,21.91,-0.42,-6.44
58540,-0.14,0.02,-0.95,30.03,1.82,2.31
58560,-0.21,-0.04,-1.0,16.24,-17.85,12.67
58580,-0.24,-0.08,-1.09,5.04,-5.67,10.01
58600,-0.2,-0.03,-0.96,6.37,21.28,8.33
58620,-0.2,-0.12,-0.88,-11.27,-16.31,17.08
58640,-0.23,-0.15,-1.06,-30.38,-19.74,12.81
58660,-0.22,-0.07,-0.97,-29.89,9.38,10.08
58680,-0.17,-0.01,-0.9,-23.45,-2.52,8.33
58700,-0.18,0.0,-0.94,-16.17,-11.83,7.42
58720,-0.2,-0.0,-0.95,-7.98,-10.85,4.97
58740,-0.2,-0.02,-0.97,-3.78,-9.38,2.87
58760,-0.22,-0.01,-0.98,-1.54,-3.78,-0.84
58780,-0.21,0.01,-0.97,-0.77,-0.63,0.28
58800,-0.21,0.0,-0.98,-1.89,1.4,-2.45
58820,-0.2,0.02,-0.96,-0.35,1.05,-1.33
58840,-0.2,0.0,-0.97,-0.35,-0.7,0.77
58860,-0.21,-0.01,-0.97,-0.35,1.26,1.89
58880,-0.21,-0.01,-0.96,0.21,2.31,0.35
58900,-0.21,0.0,-0.96,1.26,3.92,0.77
58920,-0.2,0.01,-0.96,3.15,1.75,0.42
58940,-0.2,-0.01,-0.96,3.43,-17.64,-2.59
58960,-0.21,0.01,-0.97,7.63,5.11,-0.63
58980,-0.19,0.02,-0.96,12.53,6.79,-0.07
59000,-0.21,0.02,-0.99,10.99,1.54,1.33
59020,-0.2,-0.02,-0.98,11.48,9.31,5.25
59040,-0.2,-0.08,-0.94,0.35,-3.64,6.16
59060,-0.19,-0.04,-0.99,-1.54,0.49,0.91
59080,-0.18,-0.02,-0.97,-6.79,-1.19,1.61
59100,-0.2,-0.05,-0.96,-12.74,-6.79,1.12
59120,-0.2,-0.02,-0.98,-12.88,-4.97,-0.14
59140,-0.18,0.0,-0.96,-10.5,-1.4,-1.68
59160,-0.19,0.0,-0.96,-9.59,-5.95,-4.41
59180,-0.2,0.02,-0.99,-7.7,-3.99,-4.97
59200,-0.21,0.03,-0.97,-9.66,-1.54,-0.21
59220,-0.19,0.0,-0.96,-11.27,-5.88,-0.07
59240,-0.2,0.02,-0.96,-9.52,-3.85,-0.42
59260,-0.2,0.03,-0.95,-9.94,-7.84,-0.91
59280,-0.21,0.04,-0.97,-8.33,-5.95,2.66
59300,-0.21,0.04,-0.97,-8.61,-6.79,3.22
59320,-0.21,0.04,-0.96,-5.39,-4.41,0.07
59340,-0.21,0.04,-0.95,-2.52,-4.2,0.21
59360,-0.21,0.03,-0.96,0.84,-5.46,-0.63
59380,-0.21,0.03,-0.96,1.26,-5.32,-5.04
59400,-0.21,0.02,-0.95,1.05,-7.56,-8.68
59420,-0.2,0.01,-0.96,1.68,-7.77,-12.95
59440,-0.21,0.01,-0.96,-2.31,-8.54,-15.82
59460,-0.23,0.04,-0.98,-7.84,-12.74,-11.62
59480,-0.24,0.04,-0.97,-10.57,-5.46,-7.35
59500,-0.24,0.07,-0.98,-4.83,-4.76,-4.76
59520,-0.23,0.1,-0.98,-5.32,-1.54,-2.24
59540,-0.26,0.06,-0.96,-5.46,-4.41,3.22
59560,-0.26,0.03,-0.98,-3.85,3.36,3.15
59580,-0.24,0.07,-0.91,13.23,19.88,-1.4
59600,-0.26,0.07,-0.94,-1.75,-9.94,14.7
59620,-0.25,-0.01,-1.05,-16.24,-6.02,10.71
59640,-0.21,0.02,-0.91,-4.55,11.06,-6.09
59660,-0.18,0.09,-0.91,-0.49,-6.02,-6.44
59680,-0.23,0.07,-0.99,-2.66,-8.75,-2.1
59700,-0.24,0.08,-0.99,-1.12,0.14,-1.26
59720,-0.23,0.07,-0.95,0.49,2.1,-0.49
59740,-0.22,0.06,-0.94,5.04,1.05,-1.19
59760,-0.23,0.05,-0.95,3.85,-2.1,-2.03
59780,-0.23,0.03,-0.97,3.43,-1.19,-4.76
59800,-0.23,0.05,-0.95,0.77,-1.75,-1.47
59820,-0.24,0.08,-0.96,2.66,0.42,-0.42
59840,-0.22,0.09,-0.98,3.99,-0.49,2.94
59860,-0.22,0.03,-0.96,0.56,-1.54,6.3
59880,-0.22,0.04,-0.97,3.71,-0.21,-0.84
59900,-0.23,0.09,-0.97,2.59,3.57,1.68
59920,-0.23,0.04,-0.94,1.75,-1.47,1.89
59940,-0.24,0.05,-0.97,1.82,3.36,1.89
59960,-0.25,0.05,-0.96,-1.33,2.17,6.86
