timestamp,accX,accY,accZ,gyrX,gyrY,gyrZ
0,0.75,-0.5,-0.42,4.48,3.71,5.32
20,0.75,-0.5,-0.43,0.63,-0.77,3.71
40,0.74,-0.5,-0.43,1.75,-1.54,5.67
60,0.73,-0.51,-0.43,0.07,-1.61,-0.84
80,0.75,-0.5,-0.43,-1.33,-1.26,1.19
100,0.74,-0.5,-0.43,0.0,-1.75,0.77
120,0.74,-0.51,-0.43,-0.56,-0.49,-2.17
140,0.75,-0.5,-0.43,-0.56,-1.54,-0.21
160,0.74,-0.5,-0.43,-0.56,-1.96,2.8
180,0.75,-0.5,-0.42,0.28,-2.87,2.8
200,0.73,-0.51,-0.44,0.84,-1.33,2.17
220,0.74,-0.51,-0.43,0.77,-3.08,2.38
240,0.74,-0.51,-0.44,-0.42,-1.61,1.4
260,0.74,-0.5,-0.43,0.49,0.77,1.54
280,0.74,-0.51,-0.43,-0.14,0.63,0.91
300,0.74,-0.51,-0.43,-0.7,-1.12,1.47
320,0.74,-0.51,-0.43,-1.4,0.91,-0.56
340,0.75,-0.5,-0.43,-0.56,1.75,0.91
360,0.75,-0.5,-0.43,-3.92,-0.21,1.4
380,0.75,-0.51,-0.43,-6.86,-1.05,4.34
400,0.74,-0.5,-0.44,-6.72,-3.5,4.69
420,0.74,-0.5,-0.44,-6.23,-5.53,6.44
440,0.73,-0.51,-0.44,-2.87,-4.69,5.18
460,0.73,-0.51,-0.44,-0.91,-1.82,0.49
480,0.74,-0.51,-0.43,-1.68,-2.8,-1.33
500,0.73,-0.51,-0.45,-3.08,-3.36,-1.96
520,0.74,-0.51,-0.43,-4.62,-1.89,-5.32
540,0.73,-0.5,-0.45,0.49,0.28,-2.8
560,0.73,-0.52,-0.43,-1.33,5.11,-15.47
580,0.74,-0.38,-0.44,-3.78,3.99,-24.22
600,0.75,-0.47,-0.45,16.87,0.77,-14.91
620,0.75,-0.48,-0.42,5.95,6.93,-18.97
640,0.77,-0.47,-0.43,5.46,4.83,-11.69
660,0.78,-0.46,-0.43,5.95,2.31,1.82
680,0.76,-0.47,-0.43,2.94,-2.24,6.16
700,0.76,-0.47,-0.44,4.13,-3.64,10.08
720,0.77,-0.47,-0.44,4.27,-3.92,13.58
740,0.74,-0.49,-0.43,5.25,6.02,8.82
760,0.75,-0.51,-0.44,0.7,3.08,4.97
780,0.75,-0.53,-0.45,-17.85,1.96,6.86
800,0.74,-0.49,-0.42,-2.87,2.17,5.46
820,0.75,-0.5,-0.43,0.98,-2.17,2.24
840,0.75,-0.49,-0.43,0.49,-2.1,2.24
860,0.75,-0.49,-0.43,0.07,-5.18,4.55
880,0.75,-0.49,-0.43,0.07,-7.0,8.05
900,0.74,-0.5,-0.43,-1.19,-7.56,8.96
920,0.74,-0.51,-0.43,-1.61,-10.22,9.8
940,0.72,-0.52,-0.45,0.42,-4.69,1.96
960,0.74,-0.52,-0.43,-0.7,-3.85,3.78
980,0.73,-0.5,-0.44,-0.84,0.56,0.7
1000,0.74,-0.51,-0.44,0.28,-1.33,2.24
1020,0.74,-0.5,-0.43,0.56,-1.33,3.85
1040,0.73,-0.5,-0.44,1.26,-0.14,5.18
1060,0.73,-0.51,-0.44,0.07,0.07,4.06
1080,0.73,-0.51,-0.44,0.14,0.56,4.83
1100,0.73,-0.52,-0.43,0.77,2.17,5.04
1120,0.73,-0.53,-0.43,-0.98,5.04,5.04
1140,0.74,-0.52,-0.43,-5.04,0.91,1.75
1160,0.73,-0.52,-0.44,-5.81,0.07,1.12
1180,0.72,-0.53,-0.43,-7.35,1.26,-3.43
1200,0.74,-0.51,-0.44,-5.39,1.26,-5.11
1220,0.72,-0.53,-0.43,-4.55,3.15,-10.78
1240,0.74,-0.5,-0.44,-5.95,3.08,-18.83
1260,0.75,-0.49,-0.44,-3.64,2.45,-19.39
1280,0.75,-0.48,-0.44,-3.5,2.59,-12.95
1300,0.74,-0.5,-0.43,5.39,5.53,-20.09
1320,0.76,-0.48,-0.43,4.34,5.88,-19.74
1340,0.75,-0.5,-0.41,11.48,7.21,-21.35
1360,0.79,-0.45,-0.42,6.09,1.96,-12.39
1380,0.78,-0.47,-0.42,6.3,0.14,-4.83
1400,0.78,-0.45,-0.42,7.84,0.77,5.39
1420,0.77,-0.46,-0.42,10.01,1.82,10.92
1440,0.78,-0.49,-0.41,5.32,4.55,7.91
1460,0.79,-0.51,-0.43,-4.9,10.71,12.81
1480,0.77,-0.47,-0.42,-10.22,12.11,12.88
1500,0.76,-0.51,-0.42,-3.08,20.86,0.7
1520,0.76,-0.5,-0.41,-5.81,15.82,17.43
1540,0.75,-0.48,-0.37,3.78,-1.89,5.18
1560,0.78,-0.49,-0.4,3.64,-10.99,5.39
1580,0.77,-0.49,-0.4,1.19,-4.62,3.99
1600,0.76,-0.49,-0.4,0.7,-6.65,2.38
1620,0.77,-0.49,-0.4,-1.05,-8.05,4.06
1640,0.77,-0.48,-0.41,0.7,-6.09,9.1
1660,0.78,-0.49,-0.4,-1.4,-7.35,12.04
1680,0.76,-0.49,-0.4,-2.17,-5.32,14.49
1700,0.76,-0.51,-0.39,-2.03,-1.4,11.55
1720,0.76,-0.5,-0.41,-2.59,-3.15,14.28
1740,0.75,-0.52,-0.42,-5.18,-3.08,16.31
1760,0.75,-0.52,-0.41,-10.92,-1.54,11.97
1780,0.73,-0.52,-0.4,-8.4,0.14,11.06
1800,0.73,-0.51,-0.42,-1.89,-0.56,5.67
1820,0.74,-0.53,-0.42,0.56,1.75,3.08
1840,0.74,-0.51,-0.42,1.75,-1.75,2.87
1860,0.74,-0.51,-0.42,0.14,-0.63,3.36
1880,0.74,-0.52,-0.42,-1.12,0.7,4.9
1900,0.75,-0.5,-0.42,-9.03,4.97,4.9
1920,0.73,-0.52,-0.41,-2.17,4.06,2.73
1940,0.74,-0.53,-0.41,-0.07,4.27,-0.28
1960,0.74,-0.52,-0.41,1.89,5.67,-1.82
1980,0.74,-0.53,-0.41,2.45,5.81,-2.38
2000,0.74,-0.52,-0.4,1.26,6.93,-4.69
2020,0.72,-0.54,-0.4,0.49,6.72,-14.49
2040,0.72,-0.57,-0.41,12.6,-0.91,-44.52
2060,0.79,-0.44,-0.41,4.41,4.48,-53.2
2080,0.77,-0.46,-0.42,3.43,1.68,-49.14
2100,0.73,-0.48,-0.41,37.38,-14.63,-44.03
2120,0.79,-0.47,-0.39,-2.73,8.19,-28.28
2140,0.83,-0.44,-0.39,-1.33,4.27,-25.55
2160,0.82,-0.45,-0.38,0.35,-2.66,-8.54
2180,0.8,-0.45,-0.39,0.98,-3.5,-0.98
2200,0.81,-0.43,-0.39,6.37,-4.9,2.17
2220,0.83,-0.43,-0.37,3.29,-5.11,10.57
2240,0.8,-0.45,-0.39,5.53,-3.85,14.63
2260,0.79,-0.46,-0.4,7.0,-1.26,15.05
2280,0.8,-0.46,-0.39,4.48,2.1,12.32
2300,0.79,-0.47,-0.38,1.54,0.35,11.83
2320,0.78,-0.48,-0.37,0.91,1.54,6.3
2340,0.79,-0.49,-0.38,-0.56,1.4,3.5
2360,0.79,-0.49,-0.37,0.98,-4.9,7.42
2380,0.79,-0.47,-0.38,1.19,-6.86,15.75
2400,0.77,-0.48,-0.39,-2.87,-2.17,14.77
2420,0.77,-0.51,-0.38,0.42,-0.98,9.03
2440,0.78,-0.49,-0.39,-0.21,-2.38,6.02
2460,0.78,-0.49,-0.39,-0.49,-4.48,7.56
2480,0.77,-0.49,-0.39,1.19,-3.92,9.94
2500,0.77,-0.51,-0.39,1.68,-2.45,9.17
2520,0.76,-0.5,-0.39,2.66,2.38,3.99
2540,0.77,-0.5,-0.39,0.77,2.1,0.56
2560,0.76,-0.51,-0.39,1.89,2.03,-0.7
2580,0.76,-0.49,-0.39,1.96,4.9,-5.6
2600,0.77,-0.51,-0.39,1.19,4.13,-5.39
2620,0.77,-0.52,-0.39,3.01,3.64,-5.88
2640,0.77,-0.5,-0.39,7.0,2.31,-10.01
2660,0.78,-0.46,-0.35,5.39,6.37,-10.92
2680,0.79,-0.5,-0.36,1.12,8.54,-18.62
2700,0.78,-0.5,-0.35,3.78,-0.35,-17.43
2720,0.77,-0.51,-0.36,-3.01,1.54,-23.1
2740,0.78,-0.48,-0.37,-2.59,1.89,-38.57
2760,0.77,-0.49,-0.39,33.04,-7.77,-50.54
2780,0.85,-0.46,-0.39,23.1,-5.88,-26.74
2800,0.8,-0.47,-0.36,6.09,2.66,-17.08
2820,0.82,-0.41,-0.35,16.31,-3.78,-26.32
2840,0.86,-0.4,-0.36,10.15,-4.27,-5.25
2860,0.85,-0.4,-0.36,8.4,-11.06,3.15
2880,0.82,-0.44,-0.37,10.78,-16.31,11.13
2900,0.82,-0.46,-0.37,11.62,-14.49,14.21
2920,0.78,-0.46,-0.38,16.1,-9.38,14.35
2940,0.82,-0.47,-0.36,26.39,-9.87,14.07
2960,0.81,-0.46,-0.37,13.72,-1.68,11.27
2980,0.8,-0.47,-0.35,9.8,0.14,7.49
3000,0.82,-0.47,-0.34,6.37,0.21,4.9
3020,0.81,-0.47,-0.34,-1.12,-0.42,8.82
3040,0.78,-0.48,-0.35,1.82,-1.89,8.12
3060,0.79,-0.49,-0.35,-0.21,-0.42,6.44
3080,0.79,-0.48,-0.35,-2.24,-0.28,4.83
3100,0.8,-0.49,-0.35,-1.33,-2.45,5.81
3120,0.8,-0.49,-0.35,-0.63,-2.52,3.71
3140,0.79,-0.48,-0.36,-0.35,-1.68,4.27
3160,0.8,-0.48,-0.35,-2.87,-1.54,0.0
3180,0.79,-0.49,-0.35,-2.31,-3.64,5.95
3200,0.78,-0.49,-0.35,-3.08,0.98,0.91
3220,0.79,-0.49,-0.35,-4.13,2.24,-1.54
3240,0.79,-0.49,-0.35,-3.22,3.71,-4.13
3260,0.81,-0.47,-0.36,-0.35,7.98,-2.31
3280,0.8,-0.49,-0.35,-2.17,6.44,-4.76
3300,0.8,-0.48,-0.35,-3.85,1.96,-7.49
3320,0.83,-0.5,-0.35,-7.77,0.91,-8.19
3340,0.78,-0.48,-0.35,-7.56,-2.31,-17.22
3360,0.81,-0.48,-0.35,-7.98,-3.08,-32.76
3380,0.77,-0.52,-0.38,7.77,-1.4,-45.71
3400,0.97,-0.31,-0.36,13.16,1.89,-39.27
3420,0.72,-0.58,-0.29,40.25,-16.17,-8.19
3440,0.86,-0.42,-0.34,-2.38,-1.4,-10.57
3460,0.83,-0.43,-0.36,8.75,-7.49,-0.56
3480,0.83,-0.43,-0.36,9.03,-9.73,6.72
3500,0.83,-0.41,-0.33,15.47,-11.41,9.52
3520,0.78,-0.47,-0.36,14.77,-13.02,19.04
3540,0.81,-0.44,-0.36,19.32,-6.37,7.77
3560,0.83,-0.45,-0.33,11.41,-5.11,9.45
3580,0.83,-0.44,-0.33,6.44,-4.27,2.87
3600,0.83,-0.44,-0.35,5.25,-3.71,11.9
3620,0.82,-0.44,-0.33,4.97,-5.11,12.74
3640,0.82,-0.46,-0.35,2.52,-2.03,7.14
3660,0.82,-0.46,-0.35,1.12,-0.28,14.91
3680,0.79,-0.47,-0.36,2.38,0.28,11.69
3700,0.81,-0.47,-0.35,0.77,0.49,1.19
3720,0.8,-0.49,-0.35,-0.49,-0.28,2.87
3740,0.78,-0.49,-0.36,-3.29,-0.7,2.17
3760,0.81,-0.48,-0.35,-2.73,-2.31,7.21
3780,0.79,-0.48,-0.35,-3.78,3.22,-0.7
3800,0.82,-0.48,-0.34,-4.69,3.08,-1.19
3820,0.8,-0.47,-0.35,-4.06,3.08,-1.05
3840,0.8,-0.47,-0.35,-8.12,6.09,0.28
3860,0.81,-0.48,-0.34,-10.43,3.22,0.07
3880,0.81,-0.48,-0.34,-13.37,-1.19,0.21
3900,0.81,-0.49,-0.34,-10.85,-3.99,-8.05
3920,0.8,-0.46,-0.37,-7.07,-1.82,-23.94
3940,0.8,-0.46,-0.37,-6.51,3.57,-41.72
3960,0.85,-0.42,-0.34,-9.38,8.54,-49.91
3980,0.87,-0.4,-0.34,3.78,0.0,-21.56
4000,0.83,-0.4,-0.36,11.06,-0.07,-16.17
4020,0.84,-0.45,-0.36,10.71,-7.98,-4.13
4040,0.92,-0.33,-0.35,9.52,-0.21,2.87
4060,0.84,-0.42,-0.34,11.83,-0.7,7.21
4080,0.84,-0.42,-0.35,10.64,-5.18,17.08
4100,0.83,-0.44,-0.34,6.93,-5.67,12.95
4120,0.83,-0.43,-0.35,5.88,-4.13,9.87
4140,0.84,-0.43,-0.34,3.01,-5.11,13.93
4160,0.83,-0.44,-0.34,2.24,-2.45,9.73
4180,0.8,-0.46,-0.35,5.74,-0.07,14.07
4200,0.82,-0.46,-0.34,2.59,0.14,4.83
4220,0.82,-0.45,-0.34,1.61,0.07,2.73
4240,0.82,-0.45,-0.34,-17.78,-1.61,2.59
4260,0.81,-0.47,-0.34,-0.42,-1.54,4.27
4280,0.82,-0.45,-0.35,-1.33,0.98,2.38
4300,0.82,-0.45,-0.34,-3.15,-0.28,4.55
4320,0.82,-0.48,-0.33,-7.28,2.8,11.48
4340,0.8,-0.46,-0.35,-2.73,5.46,0.91
4360,0.82,-0.45,-0.34,-2.94,3.36,0.91
4380,0.82,-0.46,-0.34,-6.79,2.94,0.63
4400,0.81,-0.45,-0.35,-5.53,-1.05,6.51
4420,0.8,-0.49,-0.34,-6.23,-2.03,-4.69
4440,0.82,-0.46,-0.35,-3.78,-3.22,-19.32
4460,0.8,-0.47,-0.36,-8.75,-0.21,-35.42
4480,0.84,-0.44,-0.33,-13.02,5.6,-50.12
4500,0.86,-0.39,-0.34,-3.08,-2.66,-17.57
4520,0.83,-0.41,-0.36,1.68,-1.61,-10.36
4540,0.88,-0.39,-0.33,9.87,-0.56,-8.75
4560,0.85,-0.41,-0.36,6.79,-1.4,7.07
4580,0.85,-0.42,-0.34,7.28,-3.85,13.93
4600,0.84,-0.42,-0.34,10.43,-4.62,12.74
4620,0.84,-0.42,-0.34,8.4,-2.1,12.46
4640,0.83,-0.43,-0.34,9.66,-2.87,16.52
4660,0.82,-0.45,-0.34,3.85,-2.87,7.77
4680,0.83,-0.43,-0.34,2.8,-1.54,8.82
4700,0.83,-0.43,-0.34,3.36,1.19,7.91
4720,0.83,-0.44,-0.33,1.96,0.35,4.97
4740,0.82,-0.44,-0.33,-0.07,-0.49,4.9
4760,0.83,-0.45,-0.34,-0.63,0.91,2.8
4780,0.83,-0.45,-0.34,-2.1,-1.05,5.39
4800,0.82,-0.47,-0.34,-3.5,1.26,3.92
4820,0.83,-0.44,-0.35,-2.87,4.41,6.93
4840,0.82,-0.45,-0.33,-3.22,3.71,-5.04
4860,0.83,-0.45,-0.33,-7.07,-1.61,-5.53
4880,0.83,-0.43,-0.36,-10.99,-1.61,-9.31
4900,0.82,-0.44,-0.36,-9.87,-2.38,-18.06
4920,0.82,-0.43,-0.35,-9.17,-0.56,-26.53
4940,0.87,-0.41,-0.34,-9.17,0.7,-27.3
4960,0.86,-0.38,-0.35,-5.88,-4.41,-7.98
4980,0.86,-0.38,-0.38,-0.42,-5.18,-2.38
5000,0.9,-0.41,-0.33,-0.21,-10.08,7.98
5020,0.86,-0.4,-0.35,4.97,-2.38,0.98
5040,0.82,-0.4,-0.36,12.39,1.89,12.04
5060,0.85,-0.41,-0.34,9.38,-2.24,10.08
5080,0.84,-0.41,-0.34,9.87,-3.01,15.54
5100,0.83,-0.43,-0.34,7.84,-3.5,8.89
5120,0.84,-0.43,-0.34,5.53,-3.22,8.26
5140,0.84,-0.43,-0.34,3.36,-3.85,9.8
5160,0.82,-0.44,-0.34,3.08,-1.47,7.98
5180,0.82,-0.44,-0.34,1.89,0.98,2.94
5200,0.83,-0.44,-0.34,1.75,-0.07,4.13
5220,0.82,-0.45,-0.34,0.56,0.63,4.83
5240,0.83,-0.44,-0.34,-2.87,-17.43,3.08
5260,0.83,-0.44,-0.34,-4.62,0.77,2.45
5280,0.83,-0.44,-0.35,-5.32,3.36,5.88
5300,0.83,-0.45,-0.34,-3.71,3.43,3.92
5320,0.82,-0.45,-0.33,-5.18,1.75,-1.47
5340,0.83,-0.44,-0.34,-8.12,-3.43,-3.92
5360,0.83,-0.43,-0.35,-6.37,-3.99,-9.52
5380,0.83,-0.44,-0.34,-4.9,-2.73,-13.65
5400,0.82,-0.42,-0.36,-3.22,0.28,-17.08
5420,0.86,-0.42,-0.34,-1.19,-2.73,-6.65
5440,0.86,-0.41,-0.34,-0.14,-7.0,-5.04
5460,0.84,-0.41,-0.35,4.62,-4.69,-2.94
5480,0.84,-0.42,-0.35,5.32,-2.31,-1.61
5500,0.84,-0.41,-0.34,8.05,-2.31,-0.21
5520,0.83,-0.44,-0.36,14.63,-1.33,0.77
5540,0.84,-0.38,-0.31,18.27,-10.92,6.44
5560,0.83,-0.42,-0.34,15.26,-12.25,10.01
5580,0.83,-0.43,-0.34,5.04,-3.29,5.46
5600,0.83,-0.44,-0.34,2.17,-1.4,3.15
5620,0.84,-0.44,-0.34,1.12,-4.48,7.77
5640,0.83,-0.43,-0.35,0.84,-6.37,13.51
5660,0.82,-0.44,-0.35,-0.14,-1.89,8.47
5680,0.82,-0.44,-0.35,0.21,-2.17,9.03
5700,0.81,-0.45,-0.35,2.1,-0.35,8.19
5720,0.81,-0.45,-0.36,1.19,1.05,4.55
5740,0.82,-0.45,-0.36,0.42,-1.26,4.83
5760,0.82,-0.46,-0.35,-0.63,1.33,4.27
5780,0.81,-0.46,-0.35,-1.61,1.96,4.97
5800,0.81,-0.46,-0.35,-2.73,1.54,2.8
5820,0.81,-0.45,-0.35,-3.01,2.1,2.38
5840,0.82,-0.45,-0.34,-5.04,1.26,-0.98
5860,0.8,-0.47,-0.34,-9.24,-0.91,-12.39
5880,0.82,-0.45,-0.35,-13.37,-4.34,-15.33
5900,0.81,-0.45,-0.36,-11.76,-0.7,-27.3
5920,0.81,-0.41,-0.35,-14.7,4.13,-38.57
5940,0.86,-0.36,-0.37,-1.68,4.41,-19.46
5960,0.83,-0.41,-0.35,-1.89,-5.32,-1.4
5980,0.81,-0.41,-0.36,0.63,-0.77,-6.51
6000,0.8,-0.41,-0.36,5.81,-0.35,-0.35
6020,0.83,-0.39,-0.36,10.85,3.08,1.47
6040,0.83,-0.4,-0.35,12.39,-0.63,5.74
6060,0.84,-0.41,-0.35,11.06,-1.33,9.52
6080,0.83,-0.42,-0.34,9.1,-2.1,9.87
6100,0.84,-0.42,-0.34,8.12,-2.73,11.13
6120,0.84,-0.43,-0.34,4.9,-5.25,11.83
6140,0.82,-0.45,-0.34,3.08,-5.6,12.81
6160,0.83,-0.44,-0.34,1.05,-5.46,13.37
6180,0.82,-0.44,-0.34,3.57,-2.73,16.8
6200,0.82,-0.45,-0.34,2.59,0.07,9.8
6220,0.81,-0.46,-0.36,0.07,-1.89,9.24
6240,0.82,-0.46,-0.35,-0.14,-2.94,7.84
6260,0.81,-0.45,-0.35,-0.56,-3.71,11.41
6280,0.81,-0.46,-0.36,2.1,-1.26,11.76
6300,0.81,-0.47,-0.35,0.42,1.4,3.15
6320,0.81,-0.46,-0.35,-0.21,2.1,5.53
6340,0.81,-0.47,-0.34,-1.68,1.68,5.11
6360,0.81,-0.48,-0.34,-2.87,0.7,-1.54
6380,0.82,-0.46,-0.35,-5.88,-0.07,-2.66
6400,0.81,-0.46,-0.35,-6.86,-1.54,-12.32
6420,0.82,-0.46,-0.35,-5.11,-1.89,-13.23
6440,0.81,-0.46,-0.35,-5.25,-2.24,-15.82
6460,0.83,-0.43,-0.35,-0.91,0.7,-8.61
6480,0.83,-0.44,-0.35,-0.98,-3.78,-0.56
6500,0.82,-0.45,-0.36,3.36,-5.88,-4.27
6520,0.82,-0.43,-0.36,3.36,-2.94,-2.87
6540,0.82,-0.44,-0.35,5.81,-0.84,-0.35
6560,0.82,-0.44,-0.35,6.09,-0.49,-0.84
6580,0.83,-0.43,-0.36,6.86,-2.59,2.87
6600,0.82,-0.45,-0.34,8.33,-0.91,2.8
6620,0.82,-0.46,-0.34,7.21,-3.29,4.41
6640,0.82,-0.45,-0.34,4.27,-3.43,4.55
6660,0.82,-0.45,-0.35,5.11,-5.18,13.02
6680,0.82,-0.45,-0.35,2.1,-4.83,15.05
6700,0.8,-0.47,-0.35,2.52,-4.13,15.33
6720,0.81,-0.47,-0.35,1.4,-2.31,10.92
6740,0.8,-0.48,-0.35,2.94,1.05,7.56
6760,0.81,-0.48,-0.34,1.61,-0.42,3.71
6780,0.8,-0.48,-0.35,-0.35,-1.54,2.38
6800,0.8,-0.48,-0.34,-0.98,-0.14,1.75
6820,0.81,-0.48,-0.34,-0.49,0.84,3.64
6840,0.82,-0.48,-0.33,-6.16,1.19,10.78
6860,0.8,-0.48,-0.35,-3.57,3.57,-4.06
6880,0.79,-0.49,-0.34,-6.16,4.06,-7.35
6900,0.81,-0.48,-0.34,-8.68,0.42,-10.85
6920,0.8,-0.48,-0.33,-13.93,1.82,-20.3
6940,0.8,-0.47,-0.35,-17.22,-0.35,-31.15
6960,0.82,-0.43,-0.37,-17.57,1.75,-35.28
6980,0.84,-0.41,-0.36,-13.3,3.22,-28.77
7000,0.85,-0.4,-0.36,-4.34,-2.1,-7.42
7020,0.84,-0.4,-0.37,1.05,1.12,-5.18
7040,0.82,-0.42,-0.34,4.76,1.68,-4.13
7060,0.81,-0.41,-0.37,12.32,-2.38,-1.54
7080,0.83,-0.42,-0.35,11.69,-1.68,6.86
7100,0.84,-0.42,-0.36,12.04,-2.31,9.1
7120,0.83,-0.43,-0.35,15.47,-2.87,9.17
7140,0.82,-0.42,-0.34,14.98,-2.52,10.92
7160,0.83,-0.44,-0.34,11.97,-3.29,14.63
7180,0.82,-0.45,-0.34,7.14,-3.01,11.76
7200,0.82,-0.45,-0.33,3.5,-4.2,9.31
7220,0.82,-0.46,-0.34,1.19,-4.97,8.54
7240,0.82,-0.45,-0.35,0.63,-4.41,8.61
7260,0.83,-0.46,-0.34,-0.21,-0.49,12.53
7280,0.82,-0.46,-0.35,-0.49,-1.89,7.98
7300,0.81,-0.47,-0.35,-0.77,-2.87,5.32
7320,0.81,-0.47,-0.35,-1.54,-1.4,2.24
7340,0.81,-0.46,-0.35,-2.1,-1.12,1.26
7360,0.81,-0.47,-0.35,-0.07,0.56,3.15
7380,0.81,-0.46,-0.35,-1.82,3.22,0.42
7400,0.82,-0.46,-0.35,-2.59,2.66,4.55
7420,0.81,-0.47,-0.35,-4.06,1.47,3.99
7440,0.81,-0.47,-0.34,-6.86,0.0,0.35
7460,0.81,-0.46,-0.35,-7.07,-1.89,-1.96
7480,0.8,-0.47,-0.36,-5.32,-1.61,-11.48
7500,0.82,-0.45,-0.36,-3.29,-1.33,-11.69
7520,0.81,-0.45,-0.35,-4.34,-0.84,-16.17
7540,0.85,-0.43,-0.35,-0.7,-1.68,-10.29
7560,0.83,-0.43,-0.35,-0.63,-2.73,-1.68
7580,0.82,-0.43,-0.36,1.33,-2.45,-5.67
7600,0.83,-0.44,-0.35,3.15,-2.03,-2.17
7620,0.83,-0.44,-0.35,5.6,-1.96,-0.07
7640,0.83,-0.43,-0.35,6.23,-1.82,3.22
7660,0.82,-0.45,-0.35,8.61,-1.33,2.94
7680,0.83,-0.44,-0.34,6.44,-2.24,4.41
7700,0.83,-0.44,-0.35,6.16,-3.36,8.75
7720,0.82,-0.45,-0.34,4.83,-2.73,10.71
7740,0.82,-0.45,-0.35,3.5,-5.67,16.8
7760,0.82,-0.46,-0.35,5.39,-8.61,23.94
7780,0.8,-0.47,-0.35,2.38,-6.44,16.59
7800,0.8,-0.48,-0.35,2.03,1.05,2.24
7820,0.8,-0.48,-0.35,1.75,2.66,-1.33
7840,0.81,-0.47,-0.35,1.19,0.84,1.89
7860,0.82,-0.46,-0.34,-1.26,2.38,-4.69
7880,0.8,-0.47,-0.35,-1.82,1.4,1.19
7900,0.8,-0.47,-0.35,-2.45,0.91,2.31
7920,0.8,-0.47,-0.35,-4.62,2.66,-0.35
7940,0.8,-0.48,-0.34,-4.06,3.36,-2.87
7960,0.81,-0.48,-0.34,-6.58,0.63,-4.83
7980,0.82,-0.47,-0.34,-12.32,-1.26,-10.15
8000,0.81,-0.47,-0.35,-9.03,-1.82,-13.86
8020,0.81,-0.45,-0.36,-9.38,3.15,-28.63
8040,0.82,-0.44,-0.35,-11.97,4.13,-39.2
8060,0.84,-0.41,-0.34,-3.22,-0.63,-11.34
8080,0.83,-0.42,-0.37,-1.33,-1.82,-7.28
8100,0.84,-0.41,-0.35,0.56,-3.57,-1.68
8120,0.85,-0.41,-0.37,5.53,-5.39,1.4
8140,0.85,-0.42,-0.36,7.91,-6.65,5.53
8160,0.81,-0.42,-0.35,12.11,-3.5,5.88
8180,0.82,-0.43,-0.34,17.71,-4.41,7.42
8200,0.83,-0.44,-0.35,12.04,-3.71,9.8
8220,0.82,-0.44,-0.35,9.31,-0.7,6.86
8240,0.83,-0.45,-0.34,6.16,-3.43,8.54
8260,0.82,-0.45,-0.35,3.78,-4.13,10.01
8280,0.81,-0.46,-0.34,1.75,-4.34,10.01
8300,0.82,-0.46,-0.35,0.07,-3.64,5.11
8320,0.82,-0.46,-0.35,0.28,-2.52,4.69
8340,0.81,-0.46,-0.35,1.75,-1.12,5.39
8360,0.8,-0.47,-0.35,1.4,-0.56,4.48
8380,0.81,-0.46,-0.35,-0.49,-0.84,3.43
8400,0.8,-0.47,-0.36,-2.52,-0.35,0.42
8420,0.81,-0.46,-0.35,-1.82,0.84,2.24
8440,0.81,-0.46,-0.35,-1.89,1.05,0.28
8460,0.81,-0.46,-0.35,-1.96,2.52,-0.35
8480,0.81,-0.47,-0.35,-4.2,2.87,-2.38
8500,0.81,-0.46,-0.35,-4.2,1.47,-1.47
8520,0.81,-0.46,-0.34,-6.65,-17.92,-7.42
8540,0.81,-0.46,-0.35,-7.98,-1.61,-9.52
8560,0.82,-0.46,-0.36,-5.95,-0.63,-15.89
8580,0.82,-0.45,-0.36,-6.51,1.33,-20.58
8600,0.85,-0.42,-0.35,-7.21,-1.96,-15.89
8620,0.88,-0.42,-0.33,-1.26,-1.54,-8.33
8640,0.84,-0.41,-0.35,-0.56,-5.46,1.54
8660,0.84,-0.42,-0.34,2.31,-3.99,1.26
8680,0.82,-0.41,-0.36,6.23,-2.1,4.41
8700,0.84,-0.42,-0.37,10.92,-1.68,6.44
8720,0.82,-0.46,-0.32,19.6,-10.15,6.16
8740,0.83,-0.43,-0.35,7.7,-2.1,7.77
8760,0.82,-0.45,-0.34,6.37,-1.19,5.04
8780,0.82,-0.45,-0.35,3.57,-1.26,4.27
8800,0.83,-0.45,-0.35,1.89,-3.08,5.04
8820,0.82,-0.45,-0.35,0.28,-3.92,4.62
8840,0.82,-0.45,-0.35,-0.14,-3.85,6.51
8860,0.81,-0.45,-0.35,-0.42,-4.2,8.47
8880,0.8,-0.46,-0.37,-1.26,-3.29,6.72
8900,0.81,-0.46,-0.36,0.21,-0.91,5.11
8920,0.8,-0.47,-0.36,1.12,-0.14,5.39
8940,0.81,-0.47,-0.35,1.82,-2.38,5.39
8960,0.8,-0.47,-0.36,0.42,-1.4,0.28
8980,0.81,-0.49,-0.37,0.91,0.07,-14.98
9000,0.79,-0.47,-0.36,0.21,-1.05,4.13
9020,0.8,-0.47,-0.36,0.56,0.98,1.05
9040,0.8,-0.47,-0.35,0.7,0.98,-2.24
9060,0.81,-0.47,-0.35,-2.8,3.5,-6.72
9080,0.81,-0.46,-0.35,-4.83,2.38,-4.69
9100,0.81,-0.46,-0.36,-7.7,0.84,-8.47
9120,0.81,-0.45,-0.35,-8.61,2.87,-15.68
9140,0.82,-0.46,-0.34,-13.58,2.45,-27.58
9160,0.84,-0.44,-0.33,-21.28,1.33,-24.92
9180,0.82,-0.39,-0.39,-13.16,3.71,-31.57
9200,0.86,-0.4,-0.35,-8.89,-1.82,-18.41
9220,0.83,-0.4,-0.37,-9.59,-8.26,-13.65
9240,0.8,-0.36,-0.39,-6.51,-5.25,-8.33
9260,0.85,-0.39,-0.36,-6.65,-7.14,-8.47
9280,0.78,-0.35,-0.39,3.57,7.28,-4.83
9300,0.85,-0.4,-0.37,33.04,2.8,-14.77
9320,0.85,-0.45,-0.37,22.61,-10.29,1.05
9340,1.05,-0.35,-0.36,7.42,-14.35,16.45
9360,0.83,-0.41,-0.35,8.4,-2.1,3.5
9380,0.78,-0.42,-0.37,5.18,-1.47,9.31
9400,0.85,-0.42,-0.34,0.49,-6.79,15.54
9420,0.83,-0.41,-0.36,2.52,-4.34,14.98
9440,0.83,-0.41,-0.35,-5.6,-2.45,5.39
9460,0.82,-0.44,-0.36,-2.73,-3.08,4.76
9480,0.82,-0.41,-0.36,-0.7,-0.7,2.31
9500,0.82,-0.41,-0.36,-0.91,1.68,3.22
9520,0.83,-0.43,-0.37,1.26,1.89,4.9
9540,0.83,-0.42,-0.36,2.73,2.94,1.96
9560,0.84,-0.42,-0.35,1.68,3.22,2.8
9580,0.84,-0.42,-0.35,1.19,2.1,5.53
9600,0.83,-0.42,-0.35,0.91,2.94,6.51
9620,0.83,-0.42,-0.35,-0.28,3.57,2.31
9640,0.86,-0.36,-0.29,-0.28,15.82,-5.53
9660,0.85,-0.4,-0.31,-2.24,11.34,-4.27
9680,0.84,-0.44,-0.35,-3.64,4.13,5.25
9700,0.84,-0.42,-0.36,-1.19,5.53,3.36
9720,0.87,-0.45,-0.34,-9.87,3.01,14.42
9740,0.83,-0.43,-0.34,-6.79,2.45,4.06
9760,0.82,-0.44,-0.36,-4.76,-1.96,0.35
9780,0.78,-0.42,-0.37,-10.85,-12.6,-15.19
9800,0.8,-0.44,-0.36,-13.79,2.45,-34.02
9820,0.86,-0.39,-0.34,-15.82,-0.49,-30.31
9840,0.88,-0.39,-0.33,-8.54,-4.97,-10.78
9860,0.85,-0.4,-0.35,-1.26,-3.99,0.28
9880,0.83,-0.38,-0.36,0.42,-1.61,0.28
9900,0.85,-0.39,-0.35,8.4,-0.77,6.72
9920,0.86,-0.39,-0.34,11.76,-0.63,8.75
9940,0.85,-0.4,-0.34,9.24,-3.36,9.59
9960,0.85,-0.41,-0.33,6.37,-3.43,11.27
9980,0.85,-0.4,-0.34,3.64,-3.43,14.07
10000,0.84,-0.42,-0.34,1.68,-3.22,9.1
10020,0.84,-0.41,-0.34,1.61,-2.73,9.17
10040,0.83,-0.43,-0.34,3.64,-0.07,8.05
10060,0.83,-0.43,-0.34,2.38,0.56,1.89
10080,0.84,-0.42,-0.34,1.47,-0.21,3.15
10100,0.85,-0.44,-0.33,-0.84,-0.42,-0.35
10120,0.83,-0.43,-0.34,1.96,2.03,3.99
10140,0.84,-0.42,-0.34,1.12,2.24,1.96
10160,0.84,-0.42,-0.34,-0.42,1.05,1.26
10180,0.84,-0.42,-0.34,-1.19,1.05,0.14
10200,0.84,-0.42,-0.33,-1.89,0.35,0.56
10220,0.85,-0.42,-0.33,-5.6,-1.4,0.0
10240,0.84,-0.42,-0.33,-2.94,-2.1,0.7
10260,0.84,-0.42,-0.33,-3.71,-2.87,2.73
10280,0.83,-0.44,-0.34,-1.82,-2.38,-1.75
10300,0.82,-0.43,-0.36,-1.75,4.2,-4.13
10320,0.83,-0.43,-0.34,-2.38,2.59,-22.61
10340,0.86,-0.4,-0.35,-6.72,2.24,-28.21
10360,0.88,-0.39,-0.32,-4.76,-5.74,-5.6
10380,0.83,-0.4,-0.35,-7.63,-4.62,-10.36
10400,0.89,-0.37,-0.34,2.87,0.0,-0.84
10420,0.85,-0.38,-0.36,7.7,-1.26,11.27
10440,0.82,-0.39,-0.35,5.95,-3.29,5.95
10460,0.85,-0.38,-0.33,10.43,-1.19,11.97
10480,0.84,-0.41,-0.34,9.94,-2.31,12.74
10500,0.85,-0.42,-0.33,6.51,-3.57,12.74
10520,0.84,-0.42,-0.33,5.18,-1.61,9.87
10540,0.84,-0.42,-0.33,3.92,-2.31,8.61
10560,0.84,-0.43,-0.33,3.29,-1.26,9.03
10580,0.84,-0.43,-0.33,2.38,0.49,5.95
10600,0.84,-0.43,-0.33,1.4,0.21,3.92
10620,0.83,-0.43,-0.34,0.63,0.35,3.01
10640,0.84,-0.43,-0.34,0.98,1.19,3.43
10660,0.83,-0.43,-0.33,1.54,2.45,3.71
10680,0.83,-0.43,-0.33,-2.24,2.45,-3.78
10700,0.85,-0.42,-0.32,-7.14,0.84,-3.71
10720,0.83,-0.43,-0.34,-6.51,2.66,-0.07
10740,0.87,-0.4,-0.46,-1.47,4.55,7.28
10760,0.84,-0.42,-0.34,-3.08,1.82,9.1
10780,0.83,-0.43,-0.33,1.4,1.54,11.9
10800,0.84,-0.44,-0.32,2.66,0.7,13.65
10820,0.84,-0.44,-0.32,3.78,-3.15,14.63
10840,0.82,-0.45,-0.33,2.94,-6.44,10.85
10860,0.82,-0.45,-0.33,1.33,-4.55,3.36
10880,0.83,-0.45,-0.33,-1.89,-1.89,-10.64
10900,0.82,-0.46,-0.33,-2.52,-0.7,-18.55
10920,0.85,-0.43,-0.33,-2.87,-0.91,-15.54
10940,0.84,-0.43,-0.33,-1.61,-2.8,-14.56
10960,0.84,-0.42,-0.33,-1.05,-2.03,-11.48
10980,0.84,-0.42,-0.33,0.56,-1.4,-6.16
11000,0.85,-0.41,-0.32,0.98,-1.12,1.4
11020,0.84,-0.41,-0.33,4.34,-0.63,3.36
11040,0.84,-0.42,-0.33,5.32,-0.56,6.37
11060,0.85,-0.42,-0.33,5.67,-4.55,7.07
11080,0.83,-0.44,-0.33,6.44,-4.48,9.73
11100,0.84,-0.43,-0.33,6.86,-3.22,11.27
11120,0.83,-0.44,-0.33,7.49,-3.22,13.02
11140,0.84,-0.43,-0.33,10.15,-5.81,16.52
11160,0.82,-0.46,-0.33,6.02,-7.28,21.14
11180,0.82,-0.46,-0.33,5.18,-5.88,23.87
11200,0.8,-0.48,-0.33,3.22,-3.15,15.33
11220,0.81,-0.48,-0.33,2.73,-2.31,10.43
11240,0.8,-0.49,-0.33,1.19,-1.12,5.88
11260,0.8,-0.48,-0.33,0.84,0.63,1.05
11280,0.81,-0.48,-0.33,-0.21,1.19,-2.1
11300,0.81,-0.48,-0.33,-0.7,2.24,-4.41
11320,0.81,-0.48,-0.33,-1.26,2.38,-5.46
11340,0.81,-0.48,-0.32,-4.41,2.59,-13.16
11360,0.81,-0.49,-0.32,-5.67,2.73,-18.2
11380,0.82,-0.47,-0.32,-11.69,2.24,-27.93
11400,0.85,-0.47,-0.3,-20.44,1.82,-31.29
11420,0.84,-0.43,-0.34,-16.45,2.52,-36.12
11440,0.84,-0.42,-0.34,-13.65,3.08,-37.1
11460,0.86,-0.4,-0.34,-4.69,-3.22,-12.74
11480,0.88,-0.36,-0.34,6.37,3.36,-2.59
11500,0.82,-0.39,-0.33,3.22,3.22,-1.19
11520,0.82,-0.4,-0.33,2.94,0.21,0.35
11540,0.88,-0.42,-0.31,7.07,-5.04,6.51
11560,0.86,-0.4,-0.32,7.98,-4.06,10.64
11580,0.85,-0.4,-0.33,7.77,-6.65,12.11
11600,0.85,-0.41,-0.32,8.75,-5.25,16.66
11620,0.85,-0.42,-0.33,9.24,-7.14,23.38
11640,0.82,-0.45,-0.33,6.16,-3.92,15.26
11660,0.81,-0.45,-0.34,2.94,-2.73,10.57
11680,0.84,-0.44,-0.33,1.82,-0.07,4.76
11700,0.83,-0.45,-0.33,2.87,-0.21,7.35
11720,0.83,-0.45,-0.33,1.33,-1.33,5.18
11740,0.83,-0.45,-0.33,0.63,-2.17,2.45
11760,0.82,-0.45,-0.33,0.07,-0.77,2.17
11780,0.83,-0.45,-0.33,-1.61,-0.42,0.07
11800,0.82,-0.45,-0.33,-0.35,0.91,-0.56
11820,0.83,-0.45,-0.33,-2.24,2.1,-4.55
11840,0.83,-0.45,-0.33,-2.45,1.19,-3.01
11860,0.81,-0.45,-0.33,-4.69,0.84,-7.0
11880,0.83,-0.44,-0.33,-5.53,-0.91,-6.65
11900,0.83,-0.44,-0.33,-3.22,-0.56,-9.38
11920,0.84,-0.43,-0.33,-3.36,-1.12,-9.52
11940,0.83,-0.43,-0.34,-3.36,-1.75,-8.82
11960,0.88,-0.41,-0.32,-2.1,-2.8,-2.38
11980,0.82,-0.43,-0.34,-1.4,-4.69,0.14
12000,0.87,-0.42,-0.32,0.63,-3.36,1.68
12020,0.83,-0.42,-0.35,3.71,-4.48,-4.13
12040,0.84,-0.42,-0.33,5.95,-3.22,2.87
12060,0.84,-0.43,-0.33,5.74,-2.8,5.25
12080,0.83,-0.43,-0.33,4.48,-1.19,2.38
12100,0.84,-0.43,-0.33,4.34,-2.66,4.34
12120,0.84,-0.43,-0.33,3.15,-3.15,3.29
12140,0.84,-0.43,-0.33,3.08,-2.66,4.2
12160,0.84,-0.43,-0.33,2.24,-2.87,5.46
12180,0.84,-0.43,-0.33,1.96,-3.57,7.77
12200,0.83,-0.44,-0.33,-0.07,-3.43,5.39
12220,0.82,-0.44,-0.33,1.05,-1.47,6.65
12240,0.83,-0.44,-0.33,2.38,0.14,7.84
12260,0.82,-0.45,-0.33,1.47,-0.28,5.88
12280,0.84,-0.44,-0.33,1.19,0.98,4.41
12300,0.83,-0.45,-0.33,0.28,0.84,3.92
12320,0.83,-0.45,-0.33,0.63,1.19,4.55
12340,0.8,-0.44,-0.32,-2.59,2.87,2.17
12360,0.82,-0.46,-0.33,-1.96,2.24,0.07
12380,0.83,-0.45,-0.33,-3.15,1.54,3.71
12400,0.82,-0.46,-0.32,-3.15,1.61,1.26
12420,0.83,-0.46,-0.32,-3.99,-0.63,1.12
12440,0.82,-0.46,-0.33,-3.85,-2.45,-1.19
12460,0.82,-0.46,-0.33,-2.73,-0.77,-10.92
12480,0.83,-0.45,-0.33,-3.43,0.14,-16.66
12500,0.84,-0.43,-0.34,-2.52,-1.75,-15.4
12520,0.85,-0.43,-0.32,-2.03,-1.61,-8.26
12540,0.84,-0.43,-0.34,-1.47,-3.78,-9.31
12560,0.84,-0.43,-0.33,-1.05,-5.53,-4.2
12580,0.84,-0.42,-0.34,2.1,-5.04,-2.73
12600,0.84,-0.42,-0.34,4.34,-3.57,1.68
12620,0.84,-0.43,-0.33,4.55,-4.2,2.03
12640,0.84,-0.43,-0.34,3.22,-6.16,2.17
12660,0.84,-0.43,-0.34,2.17,-4.83,2.66
12680,0.84,-0.43,-0.34,3.43,-3.36,4.13
12700,0.84,-0.43,-0.33,3.78,-5.46,8.75
12720,0.83,-0.43,-0.34,3.64,-5.81,13.86
12740,0.82,-0.44,-0.34,4.48,-5.88,17.5
12760,0.81,-0.46,-0.34,3.36,-4.2,12.88
12780,0.82,-0.45,-0.34,2.66,-0.7,7.56
12800,0.81,-0.46,-0.34,4.83,1.75,7.28
12820,0.82,-0.47,-0.34,1.4,1.75,-0.42
12840,0.82,-0.46,-0.34,0.14,2.45,-1.19
12860,0.82,-0.46,-0.33,-0.42,3.71,-3.43
12880,0.82,-0.46,-0.33,0.21,3.85,-1.19
12900,0.82,-0.47,-0.33,0.0,3.57,-2.87
12920,0.82,-0.46,-0.33,-2.17,4.76,-5.6
12940,0.81,-0.46,-0.33,-3.15,4.76,-8.82
12960,0.83,-0.45,-0.32,-7.84,3.15,-7.84
12980,0.83,-0.44,-0.33,-10.15,0.35,-7.56
13000,0.83,-0.44,-0.33,-11.62,-1.68,-17.36
13020,0.83,-0.44,-0.34,-11.48,-0.56,-26.32
13040,0.84,-0.43,-0.34,-11.06,2.17,-31.71
13060,0.86,-0.39,-0.33,-4.2,1.12,-15.33
13080,0.88,-0.39,-0.34,-3.43,-5.53,-5.39
13100,0.84,-0.39,-0.36,-1.96,-4.9,-1.54
13120,0.85,-0.4,-0.35,1.54,-3.08,-0.35
13140,0.85,-0.4,-0.34,6.86,-5.53,2.24
13160,0.84,-0.42,-0.34,9.03,-5.18,4.13
13180,0.85,-0.41,-0.34,8.61,-6.16,7.07
13200,0.85,-0.4,-0.34,7.7,-6.86,8.54
13220,0.84,-0.41,-0.34,6.72,-5.74,6.79
13240,0.84,-0.41,-0.34,7.14,-4.76,10.15
13260,0.84,-0.42,-0.34,6.79,-3.36,13.58
13280,0.83,-0.43,-0.34,3.29,-1.82,10.85
13300,0.83,-0.43,-0.34,0.28,-3.57,7.98
13320,0.83,-0.43,-0.34,0.77,-1.19,5.32
13340,0.83,-0.43,-0.34,1.47,-0.42,4.76
13360,0.83,-0.44,-0.34,0.7,-0.07,3.15
13380,0.82,-0.44,-0.34,-1.54,1.05,-2.17
13400,0.83,-0.43,-0.34,-1.05,0.0,0.35
13420,0.82,-0.44,-0.35,-0.49,1.12,0.56
13440,0.84,-0.44,-0.33,-0.28,2.73,-2.52
13460,0.84,-0.43,-0.34,-0.84,2.52,-1.54
13480,0.84,-0.44,-0.34,-1.82,1.96,-1.75
13500,0.84,-0.43,-0.33,-2.45,0.91,-2.66
13520,0.84,-0.43,-0.33,-5.53,-2.17,-1.61
13540,0.83,-0.44,-0.34,-6.51,-3.15,-7.0
13560,0.83,-0.42,-0.34,-7.77,-1.61,-13.58
13580,0.84,-0.42,-0.35,-6.93,0.42,-15.82
13600,0.86,-0.39,-0.34,-7.42,-1.33,-12.11
13620,0.85,-0.4,-0.35,-2.59,-3.36,-2.38
13640,0.84,-0.4,-0.34,-3.01,-6.02,-0.21
