timestamp,accX,accY,accZ,gyrX,gyrY,gyrZ
0,0.8,-0.4,-0.43,0.77,-1.26,1.96
20,0.81,-0.4,-0.43,0.7,-0.63,3.57
40,0.8,-0.4,-0.43,3.22,-0.98,5.25
60,0.8,-0.41,-0.43,2.66,-1.05,4.06
80,0.8,-0.41,-0.43,0.91,-1.12,2.73
100,0.8,-0.41,-0.43,0.28,-1.05,-0.21
120,0.8,-0.41,-0.43,0.0,-0.56,-2.59
140,0.8,-0.41,-0.43,-0.35,-0.63,-2.45
160,0.8,-0.41,-0.43,-0.42,-1.19,-1.33
180,0.8,-0.41,-0.43,-0.35,-1.4,-0.14
200,0.8,-0.41,-0.43,0.0,-1.47,0.7
220,0.8,-0.41,-0.43,0.14,-1.54,1.12
240,0.8,-0.41,-0.43,0.42,-1.47,0.77
260,0.8,-0.41,-0.43,0.56,-0.91,0.77
280,0.8,-0.41,-0.43,0.84,-1.26,1.47
300,0.8,-0.41,-0.43,1.26,-1.33,1.19
320,0.8,-0.41,-0.43,0.42,-0.63,-0.91
340,0.8,-0.41,-0.43,0.91,0.56,-3.15
360,0.8,-0.41,-0.43,-0.35,-0.14,-2.87
380,0.8,-0.41,-0.43,-0.35,-0.56,-2.17
400,0.8,-0.41,-0.43,0.49,-0.35,-1.54
420,0.8,-0.4,-0.43,0.07,-0.7,-1.54
440,0.8,-0.4,-0.43,0.84,-0.35,-1.54
460,0.81,-0.41,-0.43,0.49,-1.12,-1.33
480,0.81,-0.4,-0.43,-0.63,-1.61,-2.24
500,0.81,-0.4,-0.43,-1.68,-1.61,-2.94
520,0.81,-0.4,-0.43,-1.19,-2.1,-2.03
540,0.81,-0.4,-0.43,-1.33,-2.52,-0.35
560,0.81,-0.4,-0.43,-1.4,-2.73,1.54
580,0.81,-0.4,-0.43,-0.91,-2.52,2.59
600,0.8,-0.4,-0.43,17.43,-2.66,3.15
620,0.8,-0.4,-0.43,0.14,-1.33,2.66
640,0.81,-0.4,-0.43,0.07,-0.56,2.73
660,0.8,-0.4,-0.43,3.5,-0.98,3.78
680,0.8,-0.4,-0.43,3.99,-0.77,4.9
700,0.8,-0.41,-0.43,3.08,-1.12,6.09
720,0.79,-0.42,-0.43,1.33,-0.91,2.17
740,0.8,-0.41,-0.43,0.42,-0.77,-1.19
760,0.8,-0.41,-0.43,0.21,-0.98,-1.4
780,0.8,-0.41,-0.43,0.0,-1.26,-1.75
800,0.8,-0.41,-0.43,-0.35,-0.84,-1.89
820,0.81,-0.41,-0.43,0.14,-0.7,-1.12
840,0.8,-0.41,-0.43,0.21,-1.19,0.14
860,0.8,-0.4,-0.43,0.56,-1.12,0.56
880,0.8,-0.4,-0.43,0.56,-0.91,1.26
900,0.8,-0.41,-0.43,1.33,-1.26,1.54
920,0.8,-0.41,-0.43,1.12,-0.98,0.98
940,0.8,-0.41,-0.43,0.0,-0.35,-1.33
960,0.8,-0.41,-0.43,0.7,0.49,-3.01
980,0.81,-0.4,-0.43,0.63,0.56,-1.82
1000,0.81,-0.4,-0.43,0.7,-0.49,-1.12
1020,0.8,-0.4,-0.43,0.42,-0.63,-1.68
1040,0.81,-0.4,-0.43,0.42,0.14,-2.52
1060,0.81,-0.4,-0.43,0.0,-0.21,-2.24
1080,0.81,-0.4,-0.43,-0.84,-0.7,-2.8
1100,0.81,-0.4,-0.43,0.91,-0.28,-1.89
1120,0.81,-0.4,-0.43,-0.77,-1.54,-0.77
1140,0.81,-0.4,-0.43,-1.47,-2.1,-0.35
1160,0.81,-0.39,-0.43,-0.7,-1.96,0.56
1180,0.81,-0.39,-0.43,-0.42,-2.24,2.45
1200,0.81,-0.4,-0.43,-0.28,-2.03,3.15
1220,0.8,-0.4,-0.43,-0.28,-2.31,3.36
1240,0.8,-0.4,-0.43,0.0,-3.15,3.71
1260,0.81,-0.4,-0.43,-0.07,-2.03,4.2
1280,0.81,-0.4,-0.43,0.98,-2.17,7.21
1300,0.8,-0.4,-0.43,2.8,-2.73,9.17
1320,0.8,-0.41,-0.43,2.24,-1.26,7.84
1340,0.79,-0.42,-0.43,1.89,-1.4,3.08
1360,0.8,-0.42,-0.43,0.49,-0.35,-1.54
1380,0.8,-0.42,-0.43,0.21,-0.14,-3.78
1400,0.8,-0.41,-0.43,-0.21,-0.28,-4.27
1420,0.8,-0.41,-0.43,-0.77,-0.7,-3.36
1440,0.8,-0.41,-0.43,-0.49,-1.12,-2.1
1460,0.8,-0.41,-0.43,-0.7,-0.98,-1.47
1480,0.81,-0.4,-0.43,-0.07,-0.98,-0.21
1500,0.81,-0.4,-0.43,0.21,-2.03,1.05
1520,0.8,-0.41,-0.43,0.35,-1.26,1.19
1540,0.8,-0.41,-0.43,-0.49,-0.42,1.05
1560,0.8,-0.41,-0.43,0.49,-0.91,1.05
1580,0.8,-0.41,-0.43,0.35,-0.91,0.28
1600,0.8,-0.4,-0.43,0.49,-0.35,0.49
1620,0.8,-0.41,-0.43,2.1,-0.35,1.4
1640,0.8,-0.41,-0.43,1.05,-1.19,0.84
1660,0.8,-0.41,-0.43,0.28,-0.98,-0.91
1680,0.8,-0.41,-0.43,0.0,-0.28,-3.01
1700,0.81,-0.41,-0.43,0.21,-0.21,-2.66
1720,0.8,-0.4,-0.43,0.63,-0.56,-1.75
1740,0.8,-0.4,-0.43,0.49,-0.63,-0.98
1760,0.8,-0.4,-0.43,0.49,-0.7,-0.91
1780,0.81,-0.4,-0.43,0.14,-1.05,-0.42
1800,0.8,-0.4,-0.43,1.75,-1.33,-0.28
1820,0.8,-0.4,-0.43,0.63,-1.4,-0.84
1840,0.8,-0.4,-0.43,-1.26,-1.33,-2.66
1860,0.81,-0.4,-0.43,-0.77,-0.98,-2.45
1880,0.81,-0.4,-0.43,-0.7,-1.19,-0.35
1900,0.81,-0.4,-0.43,-0.21,-2.03,1.19
1920,0.81,-0.4,-0.43,-0.28,-1.61,1.33
1940,0.8,-0.4,-0.43,-0.21,-1.54,1.82
1960,0.81,-0.4,-0.43,-0.56,-2.31,3.29
1980,0.8,-0.4,-0.43,-0.42,-2.45,3.5
2000,0.8,-0.4,-0.43,-0.21,-2.45,3.99
2020,0.81,-0.4,-0.43,-0.21,-2.38,6.16
2040,0.78,-0.41,-0.45,0.7,-2.94,8.4
2060,0.8,-0.41,-0.43,2.59,-2.87,11.76
2080,0.79,-0.42,-0.43,3.01,-2.45,7.42
2100,0.79,-0.42,-0.43,2.38,-1.54,2.59
2120,0.79,-0.42,-0.43,0.49,-0.28,-1.19
2140,0.8,-0.42,-0.43,0.77,0.07,-5.46
2160,0.8,-0.41,-0.43,-0.77,0.14,-5.74
2180,0.8,-0.41,-0.43,-0.77,-0.35,-3.92
2200,0.8,-0.41,-0.43,-0.7,-0.21,-3.43
2220,0.8,-0.41,-0.43,-0.7,-0.35,-3.08
2240,0.8,-0.4,-0.43,-0.14,-0.84,-1.47
2260,0.8,-0.41,-0.43,0.49,-1.12,0.84
2280,0.8,-0.41,-0.43,0.63,-1.19,1.12
2300,0.8,-0.41,-0.43,0.42,-1.05,0.56
2320,0.8,-0.41,-0.43,0.77,-0.42,1.12
2340,0.8,-0.4,-0.43,2.1,-0.35,1.61
2360,0.8,-0.41,-0.43,1.26,-0.98,1.12
2380,0.8,-0.41,-0.43,1.12,0.07,-0.56
2400,0.8,-0.41,-0.43,0.91,-0.14,-2.17
2420,0.8,-0.41,-0.43,0.77,0.07,-2.1
2440,0.8,-0.41,-0.42,-0.07,0.14,-1.19
2460,0.8,-0.4,-0.42,0.77,-0.84,-1.54
2480,0.8,-0.41,-0.42,0.35,-0.98,-0.7
2500,0.8,-0.41,-0.43,0.28,-0.42,-1.19
2520,0.81,-0.4,-0.42,0.56,-0.42,-0.42
2540,0.81,-0.4,-0.42,-0.28,-0.7,-0.7
2560,0.81,-0.4,-0.43,-0.21,-1.26,-0.49
2580,0.81,-0.4,-0.43,-0.07,-1.12,-0.91
2600,0.8,-0.41,-0.42,-1.47,-1.68,-2.24
2620,0.81,-0.4,-0.43,-1.12,-1.89,-1.05
2640,0.81,-0.4,-0.43,-0.77,-2.1,0.91
2660,0.8,-0.4,-0.43,-0.21,-1.96,1.82
2680,0.81,-0.4,-0.43,-0.7,-1.68,1.75
2700,0.81,-0.4,-0.43,0.49,-2.1,2.87
2720,0.81,-0.4,-0.43,-0.63,-2.59,3.57
2740,0.8,-0.4,-0.43,-0.98,-2.66,4.48
2760,0.8,-0.41,-0.43,0.28,-1.61,4.76
2780,0.8,-0.41,-0.43,3.01,-1.05,5.6
2800,0.8,-0.41,-0.43,3.71,-0.56,3.36
2820,0.8,-0.42,-0.43,2.31,-0.91,2.03
2840,0.8,-0.42,-0.43,0.49,-0.42,-1.82
2860,0.8,-0.41,-0.42,0.14,-0.63,-1.68
2880,0.8,-0.41,-0.43,0.07,-1.26,-1.05
2900,0.8,-0.41,-0.43,-0.21,-1.33,-0.84
2920,0.8,-0.41,-0.43,-0.42,-1.33,-0.98
2940,0.8,-0.41,-0.43,-1.19,-1.33,-1.54
2960,0.8,-0.41,-0.43,-0.56,-0.98,-1.33
2980,0.81,-0.41,-0.43,0.35,-1.26,0.7
3000,0.8,-0.41,-0.43,0.7,-1.12,1.26
3020,0.8,-0.41,-0.43,0.35,-1.33,0.98
3040,0.8,-0.41,-0.43,0.35,-2.31,0.84
3060,0.8,-0.41,-0.43,0.21,-1.19,0.56
3080,0.8,-0.41,-0.43,0.0,-1.26,0.63
3100,0.8,-0.41,-0.43,0.42,-1.12,1.12
3120,0.8,-0.41,-0.43,0.49,-0.49,0.0
3140,0.8,-0.41,-0.43,0.21,-0.35,-1.26
3160,0.8,-0.41,-0.43,0.28,-0.49,-1.47
3180,0.8,-0.4,-0.43,0.28,-1.12,-0.35
3200,0.8,-0.41,-0.43,0.14,-1.4,0.07
3220,0.8,-0.41,-0.43,0.21,-1.26,0.14
3240,0.81,-0.4,-0.43,0.35,-1.47,0.77
3260,0.8,-0.41,-0.43,0.28,-1.68,1.68
3280,0.8,-0.41,-0.43,0.49,-1.33,1.75
3300,0.8,-0.41,-0.43,0.28,-1.82,0.98
3320,0.8,-0.41,-0.43,0.98,-0.84,0.42
3340,0.8,-0.41,-0.43,-0.07,0.14,0.21
3360,0.8,-0.41,-0.43,0.77,-0.63,-0.14
3380,0.8,-0.41,-0.43,0.63,-0.35,-0.77
3400,0.8,-0.41,-0.42,0.56,-0.49,-1.96
3420,0.8,-0.41,-0.42,-0.56,-0.63,-3.08
3440,0.81,-0.4,-0.43,-1.61,-1.4,-2.59
3460,0.81,-0.4,-0.43,-0.7,-1.96,-0.28
3480,0.81,-0.4,-0.43,-1.05,-2.73,0.91
3500,0.8,-0.41,-0.43,-0.98,-2.59,1.4
3520,0.8,-0.4,-0.43,-0.56,-2.17,1.4
3540,0.81,-0.4,-0.43,-0.63,-2.38,3.22
3560,0.8,-0.41,-0.43,-0.21,-2.24,4.27
3580,0.8,-0.4,-0.43,0.7,-2.59,5.46
3600,0.8,-0.41,-0.43,2.38,-1.89,5.04
3620,0.8,-0.41,-0.43,1.96,-1.61,4.9
3640,0.79,-0.41,-0.43,1.61,-0.84,3.15
3660,0.8,-0.41,-0.43,1.26,-0.84,1.54
3680,0.79,-0.42,-0.43,0.91,-0.63,1.4
3700,0.8,-0.41,-0.43,0.63,-0.56,-0.98
3720,0.8,-0.41,-0.43,0.49,-0.7,-1.4
3740,0.8,-0.41,-0.43,0.21,-0.98,-1.19
3760,0.8,-0.41,-0.43,0.14,-1.26,0.21
3780,0.8,-0.41,-0.43,0.35,-0.91,0.21
3800,0.8,-0.41,-0.43,0.42,-0.98,-0.07
3820,0.8,-0.41,-0.43,0.28,-0.63,-0.77
3840,0.8,-0.41,-0.43,0.63,-0.42,-0.56
3860,0.8,-0.41,-0.43,0.77,-0.56,-0.07
3880,0.8,-0.41,-0.43,1.19,-0.7,0.21
3900,0.8,-0.41,-0.43,1.19,-0.7,0.07
3920,0.8,-0.41,-0.43,0.49,-0.84,-0.56
3940,0.8,-0.41,-0.43,0.98,-1.61,-1.4
3960,0.8,-0.41,-0.43,0.49,-0.49,-1.54
3980,0.8,-0.41,-0.43,0.07,-0.77,-1.54
4000,0.8,-0.41,-0.43,-0.07,-0.49,-2.1
4020,0.8,-0.41,-0.43,0.0,0.0,-2.24
4040,0.8,-0.41,-0.42,-0.42,-0.42,-2.17
4060,0.8,-0.41,-0.43,-0.28,-0.98,-1.82
4080,0.8,-0.41,-0.42,-0.98,-0.98,-2.17
4100,0.81,-0.4,-0.43,-1.54,-1.68,-1.61
4120,0.81,-0.4,-0.43,-1.19,-2.17,-0.28
4140,0.81,-0.4,-0.43,-0.63,-2.17,0.35
4160,0.8,-0.4,-0.43,-0.42,-2.03,1.19
4180,0.8,-0.4,-0.43,-0.28,-2.1,2.45
4200,0.8,-0.41,-0.43,-0.35,-2.45,2.59
4220,0.8,-0.41,-0.43,-0.28,-2.1,3.08
4240,0.8,-0.4,-0.43,-0.7,-1.05,1.89
4260,0.8,-0.4,-0.43,0.21,-0.91,0.42
4280,0.8,-0.4,-0.43,1.54,-0.56,0.42
4300,0.8,-0.4,-0.43,3.15,-0.56,2.45
4320,0.8,-0.41,-0.43,2.52,-1.05,3.22
4340,0.8,-0.41,-0.43,1.05,-1.33,1.54
4360,0.8,-0.41,-0.43,0.21,-0.98,-0.98
4380,0.8,-0.41,-0.43,-0.07,-1.47,-1.05
4400,0.8,-0.41,-0.43,-0.7,-1.47,-1.12
4420,0.8,-0.41,-0.43,-0.35,-1.33,-0.49
4440,0.8,-0.41,-0.43,-0.07,-1.4,0.35
4460,0.8,-0.41,-0.43,0.42,-1.33,0.98
4480,0.8,-0.41,-0.43,0.56,-0.7,1.05
4500,0.8,-0.41,-0.43,1.4,-1.12,1.12
4520,0.8,-0.41,-0.43,0.77,-1.05,0.56
4540,0.8,-0.41,-0.43,0.42,-0.42,-0.63
4560,0.8,-0.41,-0.43,1.12,-0.35,-0.07
4580,0.8,-0.41,-0.43,0.35,-0.42,-0.49
4600,0.8,-0.41,-0.43,0.49,-0.56,-2.03
4620,0.8,-0.41,-0.43,0.56,-0.49,-2.31
4640,0.8,-0.41,-0.43,0.28,-0.7,-2.38
4660,0.8,-0.4,-0.43,0.07,-0.35,-2.45
4680,0.81,-0.4,-0.43,0.21,-0.63,-1.33
4700,0.81,-0.4,-0.43,0.07,-1.12,-0.35
4720,0.81,-0.4,-0.43,0.21,-1.54,0.28
4740,0.8,-0.41,-0.43,0.35,-1.47,0.0
4760,0.8,-0.4,-0.43,0.07,-1.68,-0.42
4780,0.81,-0.4,-0.43,-0.77,-1.47,-0.56
4800,0.8,-0.4,-0.43,0.07,-1.61,-0.21
4820,0.8,-0.4,-0.43,0.0,-1.47,0.14
4840,0.8,-0.4,-0.43,0.14,-2.17,0.21
4860,0.81,-0.4,-0.43,-0.42,-1.61,0.91
4880,0.81,-0.4,-0.43,-0.49,-2.03,1.61
4900,0.81,-0.4,-0.43,-0.14,-2.03,1.68
4920,0.8,-0.4,-0.43,0.42,-1.4,1.89
4940,0.8,-0.39,-0.43,2.38,-1.4,2.73
4960,0.8,-0.4,-0.43,2.38,-1.61,4.06
4980,0.8,-0.41,-0.43,2.31,-1.96,5.18
5000,0.8,-0.41,-0.43,1.26,-1.61,2.87
5020,0.8,-0.41,-0.43,0.56,-0.7,0.14
5040,0.8,-0.41,-0.43,0.14,-0.91,-0.98
5060,0.8,-0.41,-0.43,0.0,-0.56,-0.98
5080,0.8,-0.41,-0.43,0.42,-0.42,-1.19
5100,0.8,-0.41,-0.43,-0.28,-1.4,-1.68
5120,0.8,-0.4,-0.43,-0.49,-0.63,-1.96
5140,0.81,-0.4,-0.43,-0.77,-0.21,-1.12
5160,0.81,-0.4,-0.43,0.42,-1.19,0.35
5180,0.8,-0.4,-0.43,0.28,-0.98,0.42
5200,0.8,-0.4,-0.43,0.35,-0.84,1.26
5220,0.81,-0.4,-0.43,0.84,-0.98,2.94
5240,0.8,-0.41,-0.43,1.68,-1.05,2.24
5260,0.8,-0.41,-0.43,0.91,-0.42,-0.21
5280,0.8,-0.41,-0.43,0.56,0.63,-2.03
5300,0.8,-0.41,-0.42,0.49,0.14,-2.45
5320,0.8,-0.41,-0.43,0.42,-0.35,-2.17
5340,0.81,-0.4,-0.42,0.07,-0.28,-1.54
5360,0.81,-0.4,-0.43,-0.14,-0.91,-0.14
5380,0.81,-0.4,-0.43,-0.14,-1.05,0.0
5400,0.81,-0.41,-0.42,0.77,-1.05,0.14
5420,0.81,-0.4,-0.43,-0.63,-1.12,-0.07
5440,0.81,-0.4,-0.43,-0.7,-1.61,0.28
5460,0.81,-0.4,-0.43,0.28,-1.61,1.19
5480,0.81,-0.4,-0.43,0.0,-1.19,1.54
5500,0.8,-0.4,-0.43,0.14,-1.19,1.68
5520,0.81,-0.4,-0.43,0.42,-0.84,2.66
5540,0.81,-0.4,-0.43,0.63,-0.98,3.08
5560,0.8,-0.41,-0.42,1.26,-1.26,2.8
5580,0.8,-0.41,-0.43,0.49,-1.33,0.77
5600,0.8,-0.41,-0.43,0.07,-1.12,-0.7
5620,0.8,-0.41,-0.43,0.21,-1.12,-0.42
5640,0.8,-0.41,-0.43,0.14,-0.77,-0.7
5660,0.8,-0.41,-0.43,0.42,-0.42,-1.26
5680,0.8,-0.4,-0.43,0.63,-0.28,-1.12
5700,0.8,-0.4,-0.42,1.12,-0.21,-1.12
5720,0.81,-0.4,-0.42,0.49,-1.05,-0.49
5740,0.81,-0.4,-0.42,0.35,-2.45,0.49
5760,0.81,-0.41,-0.42,0.56,-1.54,0.42
5780,0.81,-0.4,-0.42,0.21,-1.68,0.07
5800,0.81,-0.4,-0.43,0.49,-1.47,0.35
5820,0.81,-0.4,-0.43,0.42,-1.54,0.77
5840,0.81,-0.4,-0.42,0.35,-1.61,0.28
5860,0.81,-0.4,-0.43,0.14,-1.68,-0.07
5880,0.81,-0.4,-0.43,0.14,-1.82,0.63
5900,0.81,-0.4,-0.43,-0.07,-1.89,0.63
5920,0.8,-0.41,-0.42,-0.91,-1.75,0.49
5940,0.8,-0.4,-0.43,-0.7,-1.89,0.98
5960,0.81,-0.4,-0.43,-1.19,-2.59,2.31
5980,0.81,-0.4,-0.43,-1.47,-3.43,3.57
6000,0.8,-0.4,-0.43,-1.19,-4.06,4.69
6020,0.8,-0.4,-0.43,-0.35,-2.38,5.6
6040,0.8,-0.41,-0.43,-0.14,-0.91,6.93
6060,0.78,-0.41,-0.44,2.59,-2.31,8.75
6080,0.78,-0.42,-0.43,2.17,-1.68,6.37
6100,0.79,-0.42,-0.43,1.12,0.49,-2.31
6120,0.8,-0.42,-0.43,0.42,0.0,-2.59
6140,0.8,-0.42,-0.43,0.21,-0.91,-1.19
6160,0.8,-0.41,-0.43,0.07,-1.19,-0.77
6180,0.8,-0.41,-0.43,-0.63,-0.84,-2.1
6200,0.8,-0.41,-0.43,0.0,-0.91,-1.4
6220,0.8,-0.41,-0.43,0.42,-1.61,0.63
6240,0.8,-0.41,-0.43,0.77,-1.61,1.61
6260,0.8,-0.41,-0.43,0.77,-1.05,0.63
6280,0.8,-0.41,-0.43,0.49,-1.12,-0.21
6300,0.8,-0.41,-0.43,1.26,-0.91,-1.47
6320,0.8,-0.41,-0.43,0.28,-0.77,-2.24
6340,0.8,-0.41,-0.43,0.0,-1.12,-1.82
6360,0.8,-0.41,-0.43,0.63,-0.91,-0.84
6380,0.8,-0.41,-0.43,0.7,-0.42,-1.26
6400,0.8,-0.41,-0.43,17.85,-0.56,-3.5
6420,0.8,-0.41,-0.43,-0.21,-0.28,-3.92
6440,0.8,-0.41,-0.43,-0.28,-0.42,-4.13
6460,0.81,-0.4,-0.43,-1.19,-0.91,-3.15
6480,0.81,-0.4,-0.43,-0.7,-1.82,-1.68
6500,0.81,-0.4,-0.43,-0.7,-2.52,0.91
6520,0.8,-0.4,-0.43,-0.14,-2.24,1.26
6540,0.8,-0.4,-0.43,-0.07,-1.47,0.91
6560,0.8,-0.4,-0.43,-0.28,-1.68,1.96
6580,0.8,-0.41,-0.43,-0.35,-2.24,4.13
6600,0.8,-0.4,-0.43,0.7,-1.75,3.01
6620,0.8,-0.4,-0.43,0.84,-1.19,2.24
6640,0.8,-0.4,-0.43,2.03,-2.1,3.01
6660,0.8,-0.41,-0.43,3.15,-1.26,3.99
6680,0.8,-0.41,-0.43,3.15,-0.56,2.94
6700,0.8,-0.42,-0.43,2.8,-0.35,1.4
6720,0.8,-0.42,-0.42,0.77,-0.35,-1.61
6740,0.8,-0.41,-0.43,0.07,-0.91,-2.52
6760,0.8,-0.41,-0.43,-0.56,-1.54,-1.61
6780,0.8,-0.41,-0.43,-0.98,-1.54,-0.91
6800,0.8,-0.41,-0.43,-0.49,-1.12,-0.35
6820,0.8,-0.41,-0.43,-0.28,-1.12,0.28
6840,0.8,-0.41,-0.43,0.14,-1.26,0.63
6860,0.8,-0.41,-0.43,0.35,-0.77,0.49
6880,0.8,-0.41,-0.43,0.7,-0.56,1.05
6900,0.8,-0.41,-0.43,0.84,-1.33,1.47
6920,0.8,-0.41,-0.43,1.26,-0.91,1.96
6940,0.8,-0.41,-0.42,2.24,-0.56,1.61
6960,0.8,-0.41,-0.43,0.56,-0.84,-0.07
6980,0.8,-0.41,-0.43,0.56,0.14,-2.24
7000,0.8,-0.41,-0.43,0.28,0.28,-3.01
7020,0.81,-0.41,-0.43,0.21,-0.21,-1.89
7040,0.8,-0.41,-0.42,0.21,-0.56,-1.54
7060,0.8,-0.41,-0.43,-0.07,-0.84,-0.98
7080,0.81,-0.4,-0.42,-0.07,-0.84,-0.63
7100,0.8,-0.4,-0.43,-0.49,-1.33,0.21
7120,0.8,-0.41,-0.43,-0.91,-1.47,-0.7
7140,0.81,-0.41,-0.43,-1.26,-1.19,-1.89
7160,0.81,-0.4,-0.43,-1.61,-1.75,-0.49
7180,0.8,-0.4,-0.43,-0.49,-1.82,0.49
7200,0.81,-0.41,-0.43,0.77,-2.24,1.26
7220,0.8,-0.4,-0.43,-0.21,-1.75,1.19
7240,0.8,-0.4,-0.43,-0.7,-1.47,0.77
7260,0.8,-0.4,-0.43,0.07,-0.84,0.91
7280,0.8,-0.4,-0.43,0.98,0.35,0.35
7300,0.8,-0.4,-0.43,2.59,0.0,0.77
7320,0.8,-0.41,-0.42,2.94,-0.49,1.89
7340,0.8,-0.41,-0.42,1.12,-1.4,2.24
7360,0.8,-0.41,-0.43,0.35,-1.89,1.33
7380,0.8,-0.41,-0.43,0.07,-1.75,-0.21
7400,0.8,-0.41,-0.42,-0.49,-1.61,-0.63
7420,0.8,-0.4,-0.43,-0.49,-1.33,-0.7
7440,0.81,-0.41,-0.43,-0.63,-1.12,-0.49
7460,0.8,-0.4,-0.43,-0.28,-1.4,0.28
7480,0.8,-0.41,-0.43,17.78,-1.12,0.49
7500,0.81,-0.41,-0.43,0.91,-0.42,0.14
7520,0.8,-0.4,-0.43,0.35,-0.77,0.7
7540,0.8,-0.41,-0.43,0.56,-1.89,1.05
7560,0.8,-0.41,-0.43,0.49,-1.12,1.05
7580,0.8,-0.4,-0.43,0.91,-0.7,1.89
7600,0.8,-0.41,-0.43,0.49,-2.03,2.03
7620,0.8,-0.41,-0.43,0.28,-1.61,1.54
7640,0.8,-0.41,-0.43,0.35,-1.05,-0.42
7660,0.8,-0.41,-0.43,0.07,-0.91,-1.61
7680,0.8,-0.41,-0.43,0.42,-0.7,-0.98
7700,0.8,-0.41,-0.43,0.56,-0.7,-0.84
7720,0.8,-0.4,-0.43,0.35,-0.77,-1.26
7740,0.8,-0.41,-0.43,0.0,-0.77,-1.89
7760,0.8,-0.4,-0.43,-0.63,-0.7,-2.1
7780,0.81,-0.4,-0.43,-0.84,-1.4,-1.4
7800,0.81,-0.4,-0.43,-0.49,-2.52,-0.84
7820,0.8,-0.4,-0.43,-1.61,-2.73,-0.14
7840,0.81,-0.4,-0.43,-0.35,-2.59,-0.07
7860,0.8,-0.4,-0.43,-0.56,-2.31,0.21
7880,0.8,-0.4,-0.43,-0.49,-1.96,0.98
7900,0.8,-0.4,-0.43,-1.12,-2.45,2.45
7920,0.8,-0.4,-0.43,0.07,-1.54,2.73
7940,0.8,-0.4,-0.43,2.66,-0.42,3.15
7960,0.8,-0.4,-0.44,4.13,-0.14,3.36
7980,0.8,-0.41,-0.43,4.76,-0.28,2.59
8000,0.8,-0.41,-0.43,2.38,-0.35,0.49
8020,0.81,-0.41,-0.42,0.14,-1.75,0.7
8040,0.8,-0.41,-0.43,-0.07,-2.24,1.33
8060,0.8,-0.41,-0.43,-0.14,-2.1,0.49
8080,0.8,-0.41,-0.43,-0.42,-1.89,0.14
8100,0.8,-0.4,-0.43,0.63,-1.12,-0.35
8120,0.8,-0.41,-0.43,0.28,-1.4,1.05
8140,0.8,-0.41,-0.43,-0.21,-1.26,0.28
8160,0.8,-0.41,-0.43,-0.21,-0.7,-0.77
8180,0.8,-0.41,-0.43,0.28,0.0,-0.42
8200,0.8,-0.41,-0.43,0.56,-0.7,1.4
8220,0.8,-0.4,-0.43,1.33,-1.05,1.89
8240,0.8,-0.41,-0.43,0.77,-0.91,0.77
8260,0.8,-0.41,-0.43,0.42,-0.77,-0.49
8280,0.8,-0.41,-0.43,0.49,-0.84,-0.56
8300,0.8,-0.41,-0.43,0.56,-0.77,-0.98
8320,0.8,-0.41,-0.43,0.42,-0.56,-1.12
8340,0.8,-0.41,-0.43,-0.28,-0.7,-0.77
8360,0.8,-0.4,-0.43,0.0,-0.63,-1.19
8380,0.8,-0.41,-0.43,-1.26,-1.19,-1.75
8400,0.8,-0.4,-0.43,-0.7,-1.4,-1.19
8420,0.81,-0.4,-0.43,-0.56,-2.24,0.84
8440,0.8,-0.4,-0.43,-0.49,-3.64,1.82
8460,0.8,-0.4,-0.43,0.0,-2.24,1.82
8480,0.8,-0.4,-0.43,-0.42,-1.4,2.52
8500,0.8,-0.4,-0.43,0.0,-1.4,1.19
8520,0.8,-0.4,-0.43,-0.21,-1.05,0.56
8540,0.8,-0.4,-0.43,0.7,-0.84,1.61
8560,0.8,-0.4,-0.43,3.08,-0.63,2.66
8580,0.8,-0.41,-0.43,3.5,-0.42,3.43
8600,0.8,-0.41,-0.43,3.29,-0.35,2.17
8620,0.8,-0.41,-0.43,1.12,-0.35,-0.7
8640,0.8,-0.41,-0.43,0.49,-0.7,-2.03
8660,0.81,-0.41,-0.43,0.07,-1.12,-1.54
8680,0.8,-0.41,-0.43,-0.42,-1.54,-0.91
8700,0.8,-0.41,-0.43,-0.49,-1.89,-0.42
8720,0.8,-0.41,-0.43,-0.28,-1.33,0.63
8740,0.8,-0.41,-0.43,1.4,-0.28,0.7
8760,0.8,-0.41,-0.43,0.35,-0.7,1.19
8780,0.8,-0.41,-0.43,0.7,-0.49,1.47
8800,0.8,-0.41,-0.43,0.63,-0.56,1.19
8820,0.8,-0.41,-0.43,0.56,-0.7,0.07
8840,0.8,-0.41,-0.43,0.35,-0.56,-0.7
8860,0.8,-0.41,-0.43,0.7,-1.12,1.12
8880,0.8,-0.41,-0.43,0.63,-2.31,2.59
8900,0.8,-0.41,-0.43,0.07,-1.47,0.56
8920,0.8,-0.41,-0.43,0.21,-0.21,-2.24
8940,0.8,-0.41,-0.42,0.0,-0.35,-2.17
8960,0.8,-0.41,-0.43,0.28,-0.49,-1.82
8980,0.8,-0.41,-0.43,-0.42,-0.42,-1.89
9000,0.8,-0.4,-0.43,0.35,-1.19,-1.05
9020,0.8,-0.41,-0.43,-0.14,-0.84,-1.05
9040,0.81,-0.41,-0.42,-1.75,-1.4,-1.54
9060,0.8,-0.4,-0.43,-1.05,-1.96,-0.7
9080,0.8,-0.4,-0.43,-1.12,-1.96,-0.77
9100,0.81,-0.4,-0.43,-1.89,-2.8,-0.7
9120,0.8,-0.4,-0.43,-1.33,-2.8,1.05
9140,0.81,-0.4,-0.43,-0.98,-2.8,2.73
9160,0.8,-0.4,-0.43,-0.63,-2.38,3.57
9180,0.8,-0.4,-0.43,0.0,-2.1,4.27
9200,0.8,-0.4,-0.43,1.96,-1.82,4.34
9220,0.8,-0.4,-0.43,2.73,-1.47,4.27
9240,0.8,-0.4,-0.43,3.64,-1.54,5.6
9260,0.8,-0.41,-0.43,3.36,-1.68,7.49
9280,0.8,-0.42,-0.43,0.07,-1.54,9.73
9300,0.79,-0.42,-0.43,0.98,-0.35,-0.84
9320,0.8,-0.41,-0.43,-0.14,-1.26,-1.26
9340,0.8,-0.41,-0.43,-0.14,-2.03,-0.77
9360,0.8,-0.41,-0.44,-0.49,-1.47,-1.19
9380,0.8,-0.41,-0.43,-0.98,-0.56,-1.4
9400,0.8,-0.41,-0.43,-0.77,-0.91,-2.17
9420,0.8,-0.41,-0.43,-0.84,-0.77,-1.89
9440,0.8,-0.41,-0.43,0.42,-0.91,0.21
9460,0.8,-0.41,-0.43,0.63,-1.19,1.4
9480,0.8,-0.41,-0.43,0.63,-1.05,1.33
9500,0.8,-0.41,-0.43,1.82,-0.49,1.68
9520,0.8,-0.41,-0.43,1.96,-0.77,2.03
9540,0.79,-0.42,-0.43,0.49,-0.98,0.0
9560,0.79,-0.41,-0.43,0.28,-0.14,-2.52
9580,0.8,-0.41,-0.43,0.42,-0.28,-2.59
9600,0.8,-0.41,-0.43,-0.14,-0.98,-2.1
9620,0.8,-0.41,-0.43,-0.14,-0.49,-1.82
9640,0.8,-0.41,-0.43,0.98,-0.07,-1.26
9660,0.8,-0.41,-0.43,-0.56,-0.56,-1.89
9680,0.8,-0.41,-0.43,-0.84,-0.63,-2.52
9700,0.81,-0.41,-0.43,-0.63,-1.26,-2.24
9720,0.8,-0.4,-0.43,-0.63,-1.96,-1.12
9740,0.8,-0.4,-0.43,-1.4,-2.38,-0.77
9760,0.8,-0.4,-0.43,-1.54,-2.52,-0.28
9780,0.8,-0.4,-0.43,-0.98,-2.8,1.75
9800,0.8,-0.4,-0.43,-0.49,-2.31,3.15
9820,0.8,-0.4,-0.43,-0.35,-2.1,3.71
9840,0.8,-0.41,-0.43,-0.21,-2.1,3.64
9860,0.8,-0.4,-0.44,1.05,-2.24,5.18
9880,0.8,-0.41,-0.44,3.22,-1.75,7.07
9900,0.79,-0.41,-0.43,6.23,-0.77,6.44
9920,0.79,-0.41,-0.43,5.95,0.42,2.87
9940,0.8,-0.42,-0.43,4.13,-0.21,0.56
9960,0.79,-0.42,-0.43,1.82,-0.28,-2.03
9980,0.8,-0.42,-0.43,0.14,0.21,-4.48
10000,0.8,-0.41,-0.43,-0.98,-0.84,-3.99
10020,0.8,-0.41,-0.43,-1.4,-1.54,-1.75
10040,0.8,-0.41,-0.43,-0.84,-2.03,-0.42
10060,0.8,-0.41,-0.43,-0.91,-1.33,-0.14
10080,0.8,-0.41,-0.43,-0.14,-1.54,1.05
10100,0.8,-0.41,-0.43,0.42,-1.26,0.91
10120,0.8,-0.41,-0.43,0.28,-0.77,0.42
10140,0.8,-0.41,-0.43,0.42,-0.42,0.49
10160,0.8,-0.41,-0.43,1.12,0.0,1.4
10180,0.8,-0.41,-0.43,1.4,-1.19,2.8
10200,0.8,-0.42,-0.43,1.33,-0.84,1.4
10220,0.8,-0.41,-0.43,0.42,-0.07,-1.75
10240,0.8,-0.41,-0.43,-0.14,-0.98,-2.73
10260,0.8,-0.41,-0.43,-0.56,-0.42,-2.31
10280,0.8,-0.41,-0.43,-0.7,-0.63,-0.35
10300,0.8,-0.41,-0.43,-0.14,-1.4,0.42
10320,0.8,-0.41,-0.43,-0.21,-1.05,0.14
10340,0.8,-0.41,-0.43,-0.21,-0.91,0.14
10360,0.8,-0.41,-0.43,-0.35,-1.54,0.35
10380,0.8,-0.41,-0.43,-1.4,-1.61,-0.77
10400,0.8,-0.41,-0.43,-2.38,-1.4,-2.24
10420,0.8,-0.41,-0.43,-1.82,-1.4,-1.12
10440,0.8,-0.41,-0.43,-0.77,-2.17,0.49
10460,0.8,-0.41,-0.43,-0.7,-2.1,0.98
10480,0.8,-0.41,-0.43,-0.42,-1.96,1.54
10500,0.8,-0.41,-0.43,-0.21,-2.45,2.1
10520,0.8,-0.41,-0.44,-0.21,-1.82,2.94
10540,0.8,-0.41,-0.43,1.26,-1.12,2.38
10560,0.8,-0.41,-0.43,1.61,-0.63,1.4
10580,0.8,-0.41,-0.43,2.45,-0.56,1.19
10600,0.8,-0.41,-0.43,2.73,-0.14,1.82
10620,0.8,-0.41,-0.43,1.75,-0.63,1.47
10640,0.8,-0.41,-0.43,0.63,-1.61,1.54
10660,0.79,-0.41,-0.43,0.07,-1.61,-0.28
10680,0.8,-0.41,-0.43,0.14,-1.26,-0.98
10700,0.8,-0.41,-0.43,-0.14,-1.26,-0.07
10720,0.8,-0.41,-0.43,-0.07,-1.61,0.91
10740,0.8,-0.41,-0.43,0.14,-1.26,0.63
10760,0.8,-0.41,-0.43,0.35,-0.84,0.21
10780,0.8,-0.41,-0.43,0.28,-0.98,0.35
10800,0.8,-0.41,-0.43,1.12,-1.4,0.21
10820,0.8,-0.41,-0.43,0.42,-1.19,0.56
10840,0.8,-0.41,-0.43,-0.21,-1.68,1.19
10860,0.79,-0.41,-0.43,1.12,-1.54,2.24
10880,0.79,-0.42,-0.43,0.35,-0.49,0.49
10900,0.79,-0.41,-0.43,0.14,-0.98,-1.47
10920,0.8,-0.41,-0.43,0.07,-0.77,-2.59
10940,0.8,-0.41,-0.43,-0.28,-0.7,-1.61
10960,0.8,-0.41,-0.43,-0.14,-0.98,-1.33
10980,0.8,-0.41,-0.43,-0.42,-0.91,-1.19
11000,0.8,-0.41,-0.43,0.07,-0.84,-0.14
11020,0.8,-0.41,-0.43,0.21,-0.84,-0.28
11040,0.8,-0.41,-0.43,-0.14,-0.98,-0.98
11060,0.8,-0.41,-0.43,-0.07,-0.98,-1.47
11080,0.8,-0.41,-0.43,-0.49,-1.33,-1.47
11100,0.8,-0.4,-0.43,0.35,-1.54,-0.35
11120,0.8,-0.41,-0.43,-0.35,-1.68,-0.21
11140,0.8,-0.4,-0.43,-0.42,-2.31,0.49
11160,0.8,-0.41,-0.43,-0.14,-1.82,1.12
11180,0.8,-0.41,-0.43,-0.56,-1.26,2.03
11200,0.8,-0.41,-0.43,0.42,-1.26,1.75
11220,0.8,-0.4,-0.44,0.63,-0.63,1.75
11240,0.8,-0.4,-0.43,3.43,-0.77,3.78
11260,0.8,-0.41,-0.43,4.41,-0.42,4.34
11280,0.8,-0.42,-0.43,3.29,-0.56,2.87
11300,0.79,-0.42,-0.43,0.84,-0.35,-0.98
11320,0.8,-0.41,-0.43,0.07,-0.7,-2.31
11340,0.8,-0.41,-0.43,-0.07,-1.47,-1.47
11360,0.8,-0.41,-0.43,-0.84,-1.54,-1.33
11380,0.8,-0.41,-0.43,-0.63,-1.47,-0.56
11400,0.8,-0.41,-0.43,-0.07,-1.54,-0.42
11420,0.8,-0.41,-0.43,0.35,-1.12,0.7
11440,0.8,-0.41,-0.43,1.33,-0.84,0.77
11460,0.8,-0.41,-0.43,0.42,-0.91,0.56
11480,0.8,-0.41,-0.43,0.56,-0.28,0.0
11500,0.8,-0.41,-0.43,0.35,-0.77,0.35
11520,0.8,-0.41,-0.43,0.84,-0.98,1.4
11540,0.8,-0.41,-0.43,1.82,-1.61,3.64
11560,0.79,-0.42,-0.43,0.77,-1.54,2.17
11580,0.79,-0.41,-0.43,0.21,-0.56,-1.89
11600,0.8,-0.41,-0.43,0.0,-0.21,-3.92
11620,0.8,-0.41,-0.43,-0.28,-0.49,-2.1
11640,0.8,-0.41,-0.43,0.0,-1.05,-0.63
11660,0.8,-0.41,-0.43,0.21,-0.77,0.0
11680,0.8,-0.41,-0.43,0.07,-0.35,-0.28
11700,0.8,-0.41,-0.43,1.05,-1.05,-0.35
11720,0.8,-0.41,-0.43,-0.56,-0.98,-1.4
11740,0.8,-0.41,-0.43,-2.1,-1.26,-2.17
11760,0.81,-0.4,-0.43,-1.75,-1.82,-1.82
11780,0.8,-0.41,-0.43,-1.96,-1.96,-0.98
11800,0.8,-0.4,-0.43,-1.33,-2.94,-1.12
11820,0.8,-0.4,-0.43,-1.82,-2.73,0.28
11840,0.8,-0.4,-0.43,-0.84,-2.45,1.82
11860,0.8,-0.4,-0.44,-0.14,-1.61,2.24
11880,0.8,-0.4,-0.44,0.91,-0.56,2.94
11900,0.8,-0.4,-0.43,3.92,-0.14,4.41
11920,0.8,-0.41,-0.43,4.69,0.0,4.41
11940,0.8,-0.41,-0.43,4.97,-0.56,4.27
11960,0.79,-0.42,-0.42,3.29,-0.56,1.75
11980,0.8,-0.42,-0.43,0.35,-1.33,-1.33
12000,0.8,-0.41,-0.43,0.14,-1.4,-2.31
12020,0.8,-0.41,-0.43,-1.47,-1.68,-2.24
12040,0.8,-0.41,-0.43,-1.75,-2.45,-1.54
12060,0.8,-0.41,-0.43,-1.4,-1.96,-0.63
12080,0.8,-0.41,-0.43,-0.7,-1.05,0.49
12100,0.8,-0.41,-0.43,-0.21,-1.4,0.91
12120,0.8,-0.41,-0.43,0.14,-0.63,1.05
12140,0.8,-0.41,-0.43,0.7,-0.35,1.75
12160,0.8,-0.41,-0.43,1.96,-0.63,3.08
12180,0.8,-0.41,-0.43,2.24,-0.84,3.29
12200,0.8,-0.42,-0.43,1.12,-1.12,1.4
12220,0.8,-0.41,-0.43,0.0,-1.05,-1.47
12240,0.8,-0.41,-0.43,-0.28,-1.05,-2.66
12260,0.8,-0.41,-0.43,-0.77,-0.84,-2.73
12280,0.8,-0.41,-0.43,-0.7,-0.98,-2.03
12300,0.8,-0.41,-0.43,-0.49,-1.96,-1.4
12320,0.8,-0.41,-0.43,-0.77,-1.26,-0.35
12340,0.8,-0.4,-0.43,0.77,-0.84,-0.28
12360,0.8,-0.41,-0.43,0.0,-0.63,-0.91
12380,0.8,-0.4,-0.43,17.15,-1.12,-0.21
12400,0.8,-0.41,-0.43,-0.56,-1.54,-0.77
12420,0.8,-0.4,-0.43,-1.54,-1.89,-0.49
12440,0.8,-0.4,-0.43,-0.35,-2.1,0.91
12460,0.8,-0.41,-0.43,0.14,-1.82,1.61
12480,0.8,-0.41,-0.43,0.07,-1.54,1.68
12500,0.8,-0.4,-0.43,0.14,-1.47,2.17
12520,0.8,-0.4,-0.43,-0.07,-1.89,3.36
12540,0.8,-0.41,-0.43,0.35,-1.54,2.59
12560,0.8,-0.41,-0.43,1.26,-0.77,1.19
12580,0.8,-0.41,-0.43,1.82,-0.84,1.47
12600,0.8,-0.41,-0.43,3.22,-1.26,2.87
12620,0.8,-0.41,-0.43,1.89,-1.19,2.17
12640,0.8,-0.41,-0.43,0.35,-0.98,0.7
12660,0.8,-0.41,-0.43,0.21,-1.33,0.35
12680,0.8,-0.41,-0.43,0.28,-0.77,-0.42
12700,0.8,-0.41,-0.43,0.21,-0.91,-0.56
12720,0.8,-0.41,-0.43,0.14,-1.05,0.0
12740,0.8,-0.41,-0.43,0.42,-0.7,0.35
12760,0.8,-0.41,-0.43,0.63,-0.28,-0.21
12780,0.8,-0.41,-0.43,0.21,-0.7,-1.12
12800,0.8,-0.41,-0.43,0.28,-0.91,-0.84
12820,0.8,-0.41,-0.43,0.91,-0.21,-0.14
12840,0.8,-0.41,-0.42,0.49,-0.84,0.21
12860,0.8,-0.41,-0.43,0.42,-1.12,0.35
12880,0.8,-0.41,-0.43,0.91,-0.56,1.05
12900,0.8,-0.41,-0.43,1.47,-1.05,1.68
12920,0.8,-0.41,-0.43,0.49,-0.63,-0.91
12940,0.8,-0.41,-0.43,0.14,-1.05,-1.89
12960,0.8,-0.41,-0.43,0.56,-0.84,-0.56
12980,0.8,-0.41,-0.43,-0.07,-0.42,-1.12
13000,0.8,-0.41,-0.43,-0.07,-0.21,-2.03
13020,0.8,-0.41,-0.43,-0.07,-17.85,-2.03
13040,0.8,-0.41,-0.43,-0.56,-0.42,-1.82
13060,0.81,-0.41,-0.43,-0.7,-0.91,-1.96
13080,0.8,-0.41,-0.43,-0.49,-0.98,-1.82
13100,0.8,-0.4,-0.43,-1.05,-1.4,-1.4
13120,0.81,-0.4,-0.43,-1.54,-2.24,0.21
13140,0.8,-0.4,-0.43,-1.75,-3.29,1.05
13160,0.8,-0.4,-0.43,-0.98,-2.8,1.89
13180,0.81,-0.4,-0.43,-0.91,-2.45,3.08
13200,0.8,-0.4,-0.43,-0.28,-2.31,4.62
13220,0.8,-0.41,-0.43,0.28,-1.82,4.62
13240,0.8,-0.41,-0.43,1.75,-0.91,3.15
13260,0.8,-0.4,-0.43,1.82,-0.98,3.22
13280,0.8,-0.41,-0.43,3.01,-0.56,4.06
13300,0.8,-0.41,-0.43,3.64,-1.26,4.69
13320,0.79,-0.42,-0.43,2.31,-1.05,1.61
13340,0.8,-0.41,-0.43,1.05,-0.84,-1.47
13360,0.8,-0.41,-0.43,0.21,-0.98,-2.52
13380,0.8,-0.41,-0.43,-0.07,-0.7,-3.08
13400,0.8,-0.41,-0.43,-0.77,-1.4,-2.38
13420,0.8,-0.41,-0.43,-0.56,-1.75,-0.49
13440,0.8,-0.41,-0.43,-0.42,-1.61,0.0
13460,0.8,-0.41,-0.43,17.85,-1.68,1.19
13480,0.8,-0.41,-0.43,0.07,-1.19,0.49
13500,0.8,-0.41,-0.43,0.98,-1.47,0.28
13520,0.8,-0.41,-0.43,0.49,-0.98,1.54
13540,0.8,-0.41,-0.43,-0.07,-0.91,1.61
13560,0.8,-0.41,-0.43,0.84,-1.33,1.4
13580,0.8,-0.41,-0.43,0.91,-0.56,0.91
13600,0.8,-0.41,-0.43,1.47,-1.19,1.54
13620,0.8,-0.41,-0.43,0.28,-1.19,-0.35
13640,0.8,-0.41,-0.43,0.07,-0.56,-2.45
13660,0.8,-0.41,-0.43,-0.28,-0.14,-2.73
13680,0.8,-0.41,-0.43,-0.07,-0.98,-1.33
13700,0.8,-0.41,-0.43,0.0,-1.26,-0.98
13720,0.8,-0.41,-0.43,-0.21,-0.77,-0.98
13740,0.8,-0.41,-0.43,-0.28,-0.98,-1.26
13760,0.8,-0.41,-0.43,-0.63,-1.26,-1.4
13780,0.8,-0.41,-0.43,-0.63,-1.12,-1.96
13800,0.81,-0.4,-0.43,0.21,-0.98,-1.33
13820,0.8,-0.4,-0.43,0.0,-1.61,0.0
13840,0.8,-0.41,-0.43,-0.56,-2.59,0.7
13860,0.8,-0.41,-0.43,-0.35,-2.17,0.98
13880,0.8,-0.4,-0.43,-1.26,-1.82,1.89
13900,0.8,-0.4,-0.43,-0.49,-2.73,3.43
13920,0.8,-0.4,-0.43,-0.35,-2.73,5.32
13940,0.8,-0.41,-0.43,-0.35,-3.01,5.46
13960,0.8,-0.41,-0.44,-0.28,-2.73,7.07
13980,0.8,-0.41,-0.44,2.31,-1.75,9.24
14000,0.8,-0.41,-0.44,3.43,-2.03,10.36
14020,0.79,-0.42,-0.43,3.64,-2.03,8.68
14040,0.78,-0.43,-0.43,2.03,-0.7,2.1
14060,0.79,-0.43,-0.43,0.49,0.77,-3.5
14080,0.79,-0.42,-0.43,0.28,0.28,-4.41
14100,0.8,-0.42,-0.43,-0.77,-0.35,-4.13
14120,0.79,-0.42,-0.43,-0.7,-1.33,-2.38
14140,0.79,-0.42,-0.43,0.28,-0.77,-2.31
14160,0.8,-0.41,-0.43,-0.35,-0.77,-1.96
14180,0.79,-0.41,-0.43,-0.77,-0.84,-0.49
14200,0.8,-0.42,-0.43,0.14,-1.26,0.35
14220,0.8,-0.42,-0.43,0.49,-1.12,0.7
14240,0.79,-0.41,-0.43,0.42,-0.84,0.21
14260,0.8,-0.41,-0.43,0.28,-0.98,0.07
14280,0.79,-0.41,-0.43,0.35,-0.7,0.07
14300,0.79,-0.42,-0.43,0.42,-0.84,-0.21
14320,0.79,-0.41,-0.43,0.28,-1.05,0.07
14340,0.79,-0.42,-0.43,0.49,-0.77,-0.07
14360,0.8,-0.42,-0.43,0.35,-0.98,0.21
14380,0.8,-0.42,-0.43,0.21,-1.05,-0.07
14400,0.79,-0.42,-0.43,1.26,-1.12,-0.42
14420,0.8,-0.41,-0.43,0.35,-0.91,-0.14
14440,0.8,-0.42,-0.43,-0.07,-0.91,0.35
14460,0.8,-0.41,-0.43,0.63,-0.7,0.7
14480,0.8,-0.41,-0.43,1.82,-0.07,1.05
14500,0.8,-0.42,-0.43,1.4,-1.12,1.4
14520,0.79,-0.41,-0.43,0.49,-0.91,0.14
14540,0.79,-0.42,-0.43,0.35,-0.63,-2.24
14560,0.8,-0.41,-0.43,0.14,-0.56,-2.52
14580,0.8,-0.41,-0.43,-0.14,-0.84,-1.47
14600,0.8,-0.41,-0.43,0.21,-0.84,0.14
14620,0.8,-0.42,-0.43,0.49,-0.91,-0.35
14640,0.8,-0.42,-0.43,-0.49,-0.77,-1.4
14660,0.8,-0.41,-0.43,-0.21,-0.7,-1.54
14680,0.8,-0.41,-0.43,-0.21,-0.77,-1.75
14700,0.8,-0.41,-0.43,-0.42,-0.98,-2.94
14720,0.8,-0.41,-0.43,-1.89,-1.4,-3.43
14740,0.81,-0.4,-0.43,-2.38,-2.59,-2.17
14760,0.8,-0.4,-0.43,-2.17,-3.22,0.84
14780,0.8,-0.41,-0.43,-1.54,-2.87,2.45
14800,0.8,-0.41,-0.43,-1.12,-3.22,3.5
14820,0.8,-0.41,-0.43,-0.63,-3.22,5.32
14840,0.8,-0.41,-0.44,-0.14,-2.94,4.76
14860,0.79,-0.41,-0.44,2.24,-1.47,4.69
14880,0.79,-0.41,-0.44,4.2,-0.14,3.64
14900,0.79,-0.41,-0.43,4.34,0.56,2.17
14920,0.8,-0.42,-0.43,3.36,0.35,0.84
14940,0.79,-0.42,-0.43,0.98,-0.28,-1.47
14960,0.8,-0.42,-0.43,0.28,-1.12,-0.7
14980,0.8,-0.42,-0.43,0.07,-1.47,-0.98
15000,0.8,-0.41,-0.43,-1.12,-2.24,-0.42
15020,0.79,-0.41,-0.43,-0.7,-2.24,0.42
15040,0.8,-0.41,-0.44,0.7,-1.33,0.84
15060,0.79,-0.41,-0.43,0.35,-1.33,1.75
15080,0.79,-0.41,-0.44,0.35,-0.21,1.47
15100,0.8,-0.42,-0.43,2.1,-0.14,1.89
15120,0.79,-0.42,-0.43,2.31,-0.21,1.26
15140,0.8,-0.42,-0.43,1.54,0.07,0.28
15160,0.8,-0.42,-0.43,0.77,-0.21,-0.91
15180,0.79,-0.42,-0.43,0.28,-0.07,-2.59
15200,0.8,-0.41,-0.43,0.14,-0.63,-2.31
15220,0.8,-0.41,-0.43,-0.28,-0.42,-2.59
15240,0.8,-0.41,-0.43,-0.28,-0.42,-1.89
15260,0.79,-0.41,-0.43,-0.35,-0.42,-2.24
15280,0.8,-0.41,-0.43,-0.7,-0.35,-2.45
15300,0.8,-0.41,-0.43,0.49,-1.12,-2.45
15320,0.8,-0.41,-0.43,-0.77,-1.05,-1.75
15340,0.8,-0.41,-0.43,-1.12,-1.19,-1.96
15360,0.8,-0.41,-0.43,-0.84,-1.75,-0.84
15380,0.8,-0.41,-0.43,-1.26,-2.03,-0.63
15400,0.8,-0.41,-0.43,-0.84,-1.89,0.42
15420,0.8,-0.41,-0.43,-0.42,-2.24,2.17
15440,0.8,-0.41,-0.43,-0.21,-2.45,4.62
15460,0.8,-0.41,-0.43,-0.14,-2.31,5.18
15480,0.8,-0.41,-0.43,0.21,-2.38,4.83
15500,0.8,-0.41,-0.43,-0.21,-2.66,5.53
15520,0.8,-0.41,-0.44,2.1,-2.73,8.54
15540,0.79,-0.42,-0.44,3.71,-2.17,12.11
15560,0.78,-0.43,-0.44,4.83,-1.82,9.94
15580,0.78,-0.43,-0.43,4.55,-0.91,4.69
15600,0.78,-0.43,-0.43,1.33,1.05,-3.5
15620,0.79,-0.43,-0.43,0.07,0.49,-5.39
15640,0.79,-0.42,-0.43,-1.33,-1.4,-3.22
15660,0.8,-0.42,-0.43,-0.63,-1.4,-2.24
15680,0.79,-0.42,-0.43,-1.47,-0.84,-2.52
15700,0.79,-0.42,-0.43,-0.84,-1.75,-1.05
15720,0.79,-0.42,-0.43,-0.7,-1.33,-0.49
15740,0.79,-0.42,-0.43,-0.21,-1.26,-0.14
15760,0.79,-0.42,-0.43,0.35,-0.91,-0.35
15780,0.79,-0.42,-0.43,0.49,-0.7,0.28
15800,0.79,-0.42,-0.43,0.49,-0.56,0.21
15820,0.79,-0.42,-0.43,0.35,-0.63,-0.14
15840,0.79,-0.42,-0.43,0.28,-0.77,-0.28
15860,0.79,-0.42,-0.43,0.35,-0.77,-0.28
15880,0.79,-0.42,-0.43,0.49,-0.91,0.28
15900,0.79,-0.42,-0.43,0.42,-0.98,-0.07
15920,0.79,-0.42,-0.43,0.35,-0.91,-0.91
15940,0.79,-0.42,-0.43,1.05,-0.21,-1.19
15960,0.79,-0.42,-0.43,0.07,-0.63,-0.42
15980,0.8,-0.42,-0.43,-0.21,-0.56,0.07
16000,0.8,-0.42,-0.43,0.7,-0.35,0.0
16020,0.79,-0.42,-0.43,0.7,-0.42,0.35
16040,0.8,-0.42,-0.43,0.84,-0.42,0.42
16060,0.79,-0.42,-0.43,1.12,0.07,0.49
16080,0.8,-0.42,-0.43,1.19,0.14,0.21
16100,0.8,-0.42,-0.43,1.54,-0.21,0.14
16120,0.8,-0.42,-0.43,1.68,0.14,0.84
16140,0.79,-0.42,-0.43,1.75,0.28,1.47
16160,0.8,-0.42,-0.43,2.1,0.35,0.63
16180,0.8,-0.42,-0.43,2.03,0.42,0.35
16200,0.8,-0.42,-0.43,2.8,-0.28,1.4
16220,0.8,-0.42,-0.42,2.59,-0.14,2.17
16240,0.8,-0.42,-0.43,1.4,-0.35,1.89
16260,0.8,-0.42,-0.42,1.96,-0.14,1.4
16280,0.79,-0.43,-0.42,2.17,0.35,1.05
16300,0.8,-0.43,-0.42,1.68,-0.14,0.77
16320,0.8,-0.43,-0.42,1.26,-0.56,0.77
16340,0.8,-0.42,-0.42,1.05,-0.84,1.19
16360,0.8,-0.43,-0.42,0.98,-0.77,1.19
16380,0.8,-0.43,-0.42,1.61,-0.49,1.19
16400,0.8,-0.43,-0.42,1.54,-0.7,1.4
16420,0.8,-0.43,-0.42,2.17,-0.28,1.54
16440,0.8,-0.43,-0.42,1.82,0.0,1.47
16460,0.8,-0.43,-0.42,1.4,-0.35,1.47
16480,0.8,-0.43,-0.41,1.54,-0.84,1.54
16500,0.8,-0.43,-0.42,2.03,-0.91,1.47
16520,0.8,-0.43,-0.42,1.26,-1.26,1.47
16540,0.79,-0.43,-0.42,0.21,-1.96,0.35
16560,0.8,-0.43,-0.42,0.21,-1.54,-0.56
16580,0.79,-0.43,-0.42,-0.21,-1.26,0.07
16600,0.8,-0.43,-0.42,0.21,-1.75,0.63
16620,0.8,-0.43,-0.42,0.28,-1.54,0.56
16640,0.79,-0.43,-0.42,0.28,-1.26,0.28
16660,0.8,-0.43,-0.42,0.28,-1.33,0.14
16680,0.79,-0.43,-0.42,0.21,-1.26,0.14
16700,0.8,-0.43,-0.42,0.28,-1.19,0.35
16720,0.8,-0.43,-0.42,0.42,-1.05,0.77
16740,0.79,-0.43,-0.42,0.84,-0.98,1.33
16760,0.8,-0.43,-0.42,0.56,-1.61,1.19
16780,0.79,-0.43,-0.42,0.28,-1.4,0.49
