timestamp,accX,accY,accZ,gyrX,gyrY,gyrZ
0,-0.42,1.03,-0.08,7.35,-26.25,11.55
20,-0.43,0.89,-0.01,13.72,-31.78,14.0
40,-0.45,0.94,-0.06,19.46,-30.52,33.25
60,-0.42,0.96,-0.06,-2.31,-35.0,50.96
80,-0.35,1.06,-0.01,-10.5,-44.24,43.68
100,-0.29,0.95,0.03,-16.73,-42.35,35.28
120,-0.26,0.94,0.07,-19.04,-25.34,31.64
140,-0.23,0.96,0.04,-9.73,-24.22,23.31
160,-0.26,0.97,0.05,-0.35,-14.21,14.07
180,-0.23,0.98,0.06,-14.14,-7.0,9.24
200,-0.23,0.91,0.03,-9.87,-0.63,5.25
220,-0.2,0.96,0.07,-9.45,5.25,-2.31
240,-0.25,0.99,0.06,-7.28,2.31,-6.3
260,-0.25,0.94,0.08,-5.67,6.93,-13.72
280,-0.26,0.98,0.07,-5.18,6.23,-15.19
300,-0.26,0.93,0.07,3.92,5.11,-23.38
320,-0.34,0.98,0.09,8.33,6.72,-27.3
340,-0.33,0.96,0.0,13.58,1.61,-27.02
360,-0.26,0.92,0.05,13.02,8.05,-34.51
380,-0.32,0.92,0.07,19.25,16.8,-29.4
400,-0.36,0.93,0.04,24.08,15.68,-20.51
420,-0.4,0.91,0.02,29.05,17.15,-12.11
440,-0.38,0.92,0.02,19.74,7.07,-3.15
460,-0.32,0.92,0.02,38.85,12.18,-7.63
480,-0.3,0.91,0.02,39.76,19.6,-13.79
500,-0.34,0.93,0.03,53.41,25.48,-26.11
520,-0.28,0.91,-0.02,78.54,67.62,-63.14
540,-0.59,0.9,-0.1,54.81,32.55,-24.15
560,-0.49,0.92,-0.23,31.78,-18.2,14.21
580,-0.54,0.93,-0.21,21.77,-34.86,27.44
600,-0.41,0.9,-0.19,4.9,-41.51,39.2
620,-0.43,0.94,-0.19,-2.8,-42.42,43.12
640,-0.37,0.93,-0.14,-13.93,-44.17,54.74
660,-0.31,0.89,-0.04,-18.06,-18.83,53.41
680,-0.27,0.99,-0.09,-7.56,-43.75,34.58
700,-0.27,0.98,-0.11,-11.97,-34.37,22.47
720,-0.27,0.97,-0.08,-19.74,-22.05,12.04
740,-0.24,0.95,-0.04,-20.86,-11.48,6.86
760,-0.28,0.99,-0.04,-18.41,-5.11,-1.12
780,-0.29,0.96,-0.03,-15.75,-2.38,-8.4
800,-0.28,0.94,-0.01,-10.85,-0.84,-14.28
820,-0.28,0.95,-0.01,-9.17,7.28,-14.77
840,-0.36,0.92,0.0,1.75,5.95,-19.18
860,-0.28,0.99,-0.05,11.83,8.47,-21.21
880,-0.3,0.92,0.0,6.65,18.27,-36.4
900,-0.34,0.88,-0.05,26.74,28.77,-40.39
920,-0.43,0.94,-0.14,17.57,24.85,-13.58
940,-0.41,0.96,-0.03,0.28,13.44,-5.95
960,-0.37,0.89,-0.01,7.21,10.99,-6.58
980,-0.36,0.94,-0.09,17.36,7.07,-4.34
1000,-0.36,0.93,-0.07,13.37,9.94,-11.9
1020,-0.38,0.9,-0.08,22.33,14.14,-15.12
1040,-0.42,0.91,-0.05,29.19,12.88,-12.6
1060,-0.19,0.87,-0.07,51.31,32.62,-45.29
1080,-0.45,0.8,-0.04,51.52,29.89,-39.2
1100,-0.56,0.91,-0.22,43.82,1.54,-8.89
1120,-0.48,0.96,-0.24,51.52,-9.31,5.11
1140,-0.48,0.89,-0.22,-0.21,-22.47,19.67
1160,-0.51,0.83,-0.24,14.77,-35.28,40.32
1180,-0.32,0.91,-0.22,11.97,-37.38,38.99
1200,-0.43,0.97,-0.21,-22.47,-28.77,40.04
1220,-0.4,0.92,-0.19,-37.17,-42.84,50.54
1240,-0.31,0.91,-0.12,-40.25,-33.18,39.62
1260,-0.32,0.97,-0.16,-23.24,-37.66,28.21
1280,-0.3,0.93,-0.09,-20.65,-25.83,21.42
1300,-0.3,0.95,-0.08,-13.09,-18.06,13.72
1320,-0.3,0.94,-0.08,-4.76,-18.55,6.37
1340,-0.27,0.96,-0.1,-6.23,-10.43,2.94
1360,-0.26,0.94,-0.05,-3.78,-7.0,-9.8
1380,-0.33,0.95,-0.07,0.91,-10.92,-19.25
1400,-0.28,0.95,-0.09,13.51,-4.69,-31.43
1420,-0.35,0.89,-0.02,17.92,15.12,-41.93
1440,-0.38,0.89,-0.1,20.93,17.22,-30.52
1460,-0.38,0.93,-0.16,17.85,24.92,-16.1
1480,-0.4,0.89,-0.09,9.94,17.78,-8.05
1500,-0.39,0.92,-0.05,27.16,16.17,-12.39
1520,-0.26,0.91,-0.12,25.69,16.66,-12.18
1540,-0.38,0.87,-0.14,37.1,15.12,-13.09
1560,-0.34,0.91,-0.16,47.11,24.78,-22.12
1580,-0.41,0.88,-0.22,45.43,24.36,-23.1
1600,-0.36,0.86,-0.2,39.55,26.32,-27.09
1620,-0.51,0.95,-0.18,41.16,24.78,-9.52
1640,-0.42,0.9,-0.29,18.34,9.59,-7.14
1660,-0.46,0.91,-0.32,7.14,-10.5,2.94
1680,-0.49,0.85,-0.31,-0.21,-17.08,14.35
1700,-0.4,0.9,-0.31,-11.83,-17.01,19.88
1720,-0.42,0.89,-0.29,-32.9,-14.35,25.06
1740,-0.41,0.89,-0.26,-44.73,-25.13,31.78
1760,-0.4,0.9,-0.16,-44.31,-16.94,33.46
1780,-0.38,0.94,-0.16,-39.97,-20.65,32.55
1800,-0.35,0.91,-0.17,-43.05,-23.59,29.4
1820,-0.36,0.97,-0.11,-41.09,-10.57,29.19
1840,-0.29,0.92,-0.12,-40.6,-17.5,16.38
1860,-0.33,0.91,-0.07,-43.19,-8.05,8.68
1880,-0.32,0.96,-0.09,-31.08,-4.2,5.46
1900,-0.31,0.93,-0.04,-25.83,-6.3,-3.36
1920,-0.31,0.94,-0.03,-18.2,0.14,-9.8
1940,-0.34,0.92,-0.04,-13.37,-2.24,-8.05
1960,-0.32,0.89,0.0,0.35,0.07,-9.31
1980,-0.34,0.98,-0.04,5.53,4.34,-18.13
2000,-0.35,0.95,-0.05,8.33,10.78,-20.37
2020,-0.31,0.88,-0.03,0.91,24.57,-31.15
2040,-0.39,0.89,-0.07,5.39,30.38,-22.75
2060,-0.42,0.91,-0.07,17.85,21.56,-12.46
2080,-0.42,0.89,-0.05,30.73,13.23,-7.77
2100,-0.38,0.91,-0.11,23.8,6.86,-5.39
2120,-0.37,0.9,-0.12,42.28,5.6,-7.42
2140,-0.38,0.92,-0.1,47.04,17.08,-13.37
2160,-0.41,0.92,-0.13,43.26,15.47,-18.06
2180,-0.34,0.86,-0.14,52.99,25.41,-23.38
2200,-0.43,0.79,-0.14,45.64,18.69,-11.41
2220,-0.48,0.96,-0.23,50.05,12.88,1.4
2240,-0.62,0.89,-0.3,16.24,-13.16,8.82
2260,-0.49,0.88,-0.3,-0.63,-31.92,27.09
2280,-0.44,0.94,-0.31,-21.21,-37.52,33.04
2300,-0.35,0.92,-0.26,-29.96,-35.49,34.02
2320,-0.37,0.93,-0.16,-33.81,-23.1,31.01
2340,-0.32,0.86,-0.21,-32.06,-13.3,23.8
2360,-0.36,0.94,-0.18,-30.8,-16.94,18.48
2380,-0.36,0.95,-0.17,-28.63,-14.56,16.59
2400,-0.34,0.95,-0.13,-30.38,-11.2,14.91
2420,-0.32,0.94,-0.1,-28.77,-8.12,7.28
2440,-0.31,0.92,-0.07,-30.59,-6.37,-0.21
2460,-0.33,0.9,-0.07,-22.19,0.42,0.77
2480,-0.33,0.91,-0.06,-10.29,4.13,-2.73
2500,-0.35,0.91,-0.03,-7.84,1.19,-3.57
2520,-0.34,0.93,-0.04,-4.83,3.92,-5.46
2540,-0.34,0.91,-0.02,11.27,10.85,-7.21
2560,-0.32,0.9,-0.07,22.12,9.03,-14.98
2580,-0.39,0.92,-0.08,26.53,7.21,-14.07
2600,-0.38,0.92,-0.11,32.34,8.96,-9.66
2620,-0.32,0.92,-0.11,33.74,20.02,-17.29
2640,-0.4,0.91,-0.17,33.67,16.94,-15.19
2660,-0.39,0.92,-0.19,24.64,9.87,-11.62
2680,-0.39,0.88,-0.13,28.98,4.69,-5.46
2700,-0.33,0.95,-0.2,19.88,10.43,-15.61
2720,-0.37,0.9,-0.18,23.17,22.26,-21.77
2740,-0.41,0.9,-0.22,29.61,28.84,-26.46
2760,-0.35,0.79,-0.23,20.79,18.2,-30.38
2780,-0.57,0.95,-0.13,19.18,15.54,-10.57
2800,-0.49,0.86,-0.26,7.35,4.55,6.51
2820,-0.42,0.88,-0.29,-5.39,-21.21,23.17
2840,-0.46,0.94,-0.31,-32.9,-36.4,34.58
2860,-0.37,0.93,-0.22,-29.75,-24.57,29.89
2880,-0.38,0.94,-0.16,-25.34,-12.53,23.24
2900,-0.37,0.89,-0.24,-27.16,-11.69,20.23
2920,-0.37,0.92,-0.19,-32.69,-15.05,19.04
2940,-0.34,0.96,-0.17,-35.49,-11.06,14.21
2960,-0.35,0.94,-0.15,-37.87,-11.2,7.49
2980,-0.36,0.93,-0.09,-42.28,-7.98,5.67
3000,-0.35,0.92,-0.09,-38.78,-11.2,2.38
3020,-0.35,0.94,-0.05,-21.14,-13.79,-3.64
3040,-0.34,0.88,-0.03,-13.58,-9.45,-3.99
3060,-0.34,0.9,-0.01,0.07,-0.98,-4.9
3080,-0.34,0.92,-0.02,2.31,5.11,-8.26
3100,-0.37,0.92,-0.07,16.8,7.49,-8.68
3120,-0.36,0.92,-0.05,24.36,14.35,-14.21
3140,-0.33,0.89,-0.06,34.65,23.59,-26.25
3160,-0.4,0.9,-0.16,44.52,27.58,-19.67
3180,-0.45,0.94,-0.16,30.52,14.98,-4.9
3200,-0.41,0.92,-0.16,24.57,11.9,-2.38
3220,-0.36,0.91,-0.15,17.85,11.34,-3.57
3240,-0.37,0.92,-0.18,16.94,11.2,-9.8
3260,-0.36,0.87,-0.2,15.19,12.6,-16.94
3280,-0.38,0.95,-0.16,28.7,23.24,-27.51
3300,-0.42,0.87,-0.19,30.87,19.46,-25.41
3320,-0.42,0.86,-0.18,37.73,27.16,-34.44
3340,-0.59,0.89,-0.25,18.97,3.71,-3.01
3360,-0.51,0.88,-0.32,0.77,-25.83,16.31
3380,-0.5,0.91,-0.28,-13.3,-41.51,34.58
3400,-0.39,0.89,-0.28,-26.39,-35.56,29.05
3420,-0.39,0.92,-0.25,-40.39,-34.37,34.44
3440,-0.39,0.93,-0.16,-44.94,-29.05,36.05
3460,-0.38,0.9,-0.12,-36.12,-23.38,33.11
3480,-0.37,0.94,-0.16,-28.77,-25.76,21.42
3500,-0.38,0.95,-0.15,-34.65,-32.13,21.42
3520,-0.32,0.94,-0.05,-30.59,-20.65,17.64
3540,-0.31,0.94,-0.05,-19.95,-4.55,9.1
3560,-0.34,0.92,-0.08,-24.08,-11.83,1.82
3580,-0.34,0.92,-0.03,-17.78,-8.05,-4.13
3600,-0.33,0.91,-0.02,-11.76,-4.83,-6.93
3620,-0.37,0.94,-0.03,0.14,-3.92,-5.53
3640,-0.34,0.89,0.01,6.02,2.45,-5.67
3660,-0.35,0.95,-0.04,20.86,4.06,-12.74
3680,-0.37,0.94,-0.08,29.05,7.21,-10.36
3700,-0.33,0.94,-0.08,17.01,22.96,-18.83
3720,-0.38,0.91,-0.09,15.96,25.62,-21.21
3740,-0.39,0.88,-0.12,19.11,28.14,-11.97
3760,-0.43,0.91,-0.11,24.15,16.31,-8.68
3780,-0.39,0.94,-0.15,16.1,15.61,-6.72
3800,-0.39,0.9,-0.14,20.65,16.03,-7.49
3820,-0.35,0.92,-0.18,17.78,24.22,-18.27
3840,-0.41,0.89,-0.12,25.69,24.36,-20.3
3860,-0.41,0.93,-0.09,34.16,21.56,-28.0
3880,-0.47,0.85,-0.14,32.41,18.97,-17.01
3900,-0.49,0.89,-0.23,27.02,-1.05,-2.94
3920,-0.5,0.91,-0.32,4.69,-22.68,16.17
3940,-0.45,0.9,-0.27,-10.64,-37.94,24.71
3960,-0.41,0.94,-0.23,-26.32,-29.61,27.23
3980,-0.42,0.89,-0.2,-34.3,-31.08,34.93
4000,-0.38,0.86,-0.17,-48.86,-28.77,40.74
4020,-0.36,0.96,-0.12,-29.61,-30.24,25.9
4040,-0.35,0.91,-0.12,-27.58,-30.03,25.55
4060,-0.33,0.95,-0.08,-23.94,-20.44,18.83
4080,-0.33,0.96,-0.1,-16.59,-13.79,8.89
4100,-0.35,0.9,-0.07,-16.38,-16.17,6.79
4120,-0.34,0.93,-0.03,-3.57,-19.53,3.43
4140,-0.32,0.96,-0.07,2.66,-17.43,-2.45
4160,-0.35,0.91,-0.04,-2.73,-8.68,0.14
4180,-0.33,0.92,-0.04,-6.23,-4.2,-3.01
4200,-0.37,0.94,-0.04,0.98,-2.52,-2.31
4220,-0.33,0.93,-0.03,13.44,-3.01,-4.48
4240,-0.32,0.93,-0.06,16.03,5.25,-12.6
4260,-0.32,0.94,-0.09,11.69,18.41,-19.32
4280,-0.33,0.92,-0.1,10.15,31.57,-27.37
4300,-0.4,0.89,-0.08,11.13,27.86,-22.54
4320,-0.43,0.88,-0.06,30.17,20.37,-10.43
4340,-0.4,0.92,-0.11,36.54,11.55,-4.2
4360,-0.35,0.91,-0.12,38.57,15.33,-15.47
4380,-0.34,0.91,-0.12,41.65,24.22,-28.42
4400,-0.41,0.92,-0.14,49.56,35.98,-37.45
4420,-0.46,0.88,-0.19,39.9,29.12,-25.13
4440,-0.48,0.88,-0.27,28.14,11.62,-9.59
4460,-0.46,0.9,-0.25,13.3,-4.48,5.67
4480,-0.49,0.91,-0.31,-6.02,-18.27,16.24
4500,-0.44,0.92,-0.27,-18.76,-24.78,26.11
4520,-0.42,0.93,-0.23,-40.53,-25.97,38.57
4540,-0.34,0.84,-0.27,-49.49,-35.49,39.06
4560,-0.35,0.93,-0.16,-47.88,-30.52,31.5
4580,-0.39,0.97,-0.14,-42.84,-25.9,28.28
4600,-0.34,0.96,-0.1,-36.4,-19.6,23.31
4620,-0.27,0.89,-0.11,-47.67,-11.41,9.17
4640,-0.36,0.97,-0.06,-36.26,-12.81,2.73
4660,-0.36,0.94,-0.03,-32.76,-13.44,-0.77
4680,-0.33,0.9,-0.01,-29.89,-9.31,-1.68
4700,-0.36,0.96,-0.0,-17.29,2.1,-5.95
4720,-0.32,0.8,-0.04,-33.6,-1.4,-6.23
4740,-0.34,0.89,0.05,1.68,3.57,1.19
4760,-0.36,0.94,0.02,8.19,2.24,-0.7
4780,-0.33,0.89,0.03,17.22,4.83,-6.79
4800,-0.37,0.96,-0.07,29.68,8.47,-4.48
4820,-0.32,0.94,-0.05,19.25,18.55,-8.54
4840,-0.32,0.9,-0.03,18.9,31.36,-24.57
4860,-0.43,0.93,-0.09,29.19,25.48,-14.63
4880,-0.4,0.92,-0.08,38.57,16.8,-4.9
4900,-0.4,0.87,-0.11,38.57,11.2,4.97
4920,-0.35,0.95,-0.13,41.23,3.29,0.07
4940,-0.35,0.97,-0.11,31.99,8.68,-12.18
4960,-0.35,0.91,-0.12,39.76,23.17,-25.76
4980,-0.38,0.89,-0.13,37.45,15.33,-24.64
5000,-0.48,0.97,-0.13,43.47,19.53,-22.89
5020,-0.48,0.87,-0.22,25.27,-2.24,-1.47
5040,-0.48,0.93,-0.34,9.66,-18.13,11.41
5060,-0.47,0.89,-0.33,-18.13,-40.6,31.99
5080,-0.35,0.99,-0.15,-27.58,-39.13,33.74
5100,-0.33,0.8,-0.26,-34.3,-18.62,29.12
5120,-0.38,0.95,-0.17,-33.6,-28.14,27.65
5140,-0.35,0.93,-0.15,-29.89,-26.6,22.12
5160,-0.33,0.96,-0.13,-29.89,-17.08,17.01
5180,-0.34,0.94,-0.1,-24.29,-11.97,12.25
5200,-0.35,0.96,-0.07,-3.01,-5.95,12.11
5220,-0.34,0.92,-0.14,-23.52,-10.57,15.12
5240,-0.31,0.9,-0.04,-5.32,-11.83,1.96
5260,-0.31,0.92,-0.02,-18.62,-4.48,-2.1
5280,-0.35,0.91,-0.04,-11.55,-4.9,-1.54
5300,-0.37,0.92,-0.01,-0.07,-6.72,2.73
5320,-0.34,0.91,-0.02,8.47,-2.94,3.78
5340,-0.31,0.91,-0.03,17.08,-2.59,2.24
5360,-0.31,0.97,-0.05,26.04,3.92,-4.06
5380,-0.34,0.96,-0.1,25.9,16.66,-10.57
5400,-0.29,0.93,-0.09,20.16,26.81,-21.14
5420,-0.35,0.9,-0.09,31.5,27.44,-29.61
5440,-0.4,0.91,-0.15,28.91,19.6,-21.91
5460,-0.39,0.91,-0.14,28.28,12.11,-19.18
5480,-0.4,0.94,-0.15,24.15,7.84,-11.76
5500,-0.36,0.93,-0.17,22.26,8.61,-13.3
5520,-0.33,0.9,-0.15,31.15,23.94,-27.16
5540,-0.36,0.87,-0.16,33.81,25.06,-31.22
5560,-0.47,0.96,-0.18,29.26,21.0,-22.26
5580,-0.49,0.84,-0.21,19.39,7.07,-3.43
5600,-0.51,0.88,-0.31,7.84,-12.88,13.79
5620,-0.46,0.92,-0.41,-22.33,-34.79,35.91
5640,-0.37,1.01,-0.13,-30.24,-26.46,33.25
5660,-0.32,0.78,-0.3,-34.3,-20.51,27.09
5680,-0.38,0.91,-0.19,-38.71,-28.28,26.95
5700,-0.35,0.95,-0.19,-39.76,-31.22,24.78
5720,-0.32,0.92,-0.09,-35.21,-23.52,18.62
5740,-0.34,0.96,-0.1,-26.67,-16.17,11.55
5760,-0.4,1.0,-0.07,-19.32,-8.68,18.34
5780,-0.31,0.86,-0.09,-19.81,-18.83,7.77
5800,-0.34,0.96,-0.04,-18.55,-16.45,1.26
5820,-0.34,0.91,-0.02,-13.09,-8.82,0.07
5840,-0.34,0.87,-0.02,-6.37,-6.65,1.26
5860,-0.34,0.96,-0.06,2.59,0.77,3.08
5880,-0.34,0.93,-0.02,9.03,5.25,2.31
5900,-0.31,0.91,-0.07,11.62,7.14,-3.01
5920,-0.33,0.99,-0.1,13.3,17.22,-10.36
5940,-0.32,0.93,-0.06,12.95,24.78,-19.18
5960,-0.34,0.93,-0.06,21.49,30.45,-26.6
5980,-0.42,0.93,-0.14,21.77,25.55,-18.13
6000,-0.38,0.91,-0.0,27.09,13.79,-15.89
6020,-0.39,0.88,-0.13,25.2,12.67,-10.85
6040,-0.4,0.97,-0.18,18.55,5.18,-9.45
6060,-0.36,0.91,-0.17,15.19,7.28,-11.34
6080,-0.36,0.95,-0.12,22.68,16.94,-19.88
6100,-0.37,0.87,-0.13,29.89,22.68,-26.04
6120,-0.38,0.87,-0.16,23.94,15.33,-21.77
6140,-0.53,0.94,-0.17,28.21,6.3,-3.78
6160,-0.45,0.89,-0.26,16.03,-9.03,4.55
6180,-0.46,0.9,-0.29,-2.24,-22.61,15.75
6200,-0.41,0.95,-0.23,-17.29,-25.13,25.06
6220,-0.45,0.94,-0.17,-24.5,-24.22,31.57
6240,-0.37,0.9,-0.16,-26.88,-35.21,30.59
6260,-0.38,0.93,-0.18,-33.04,-33.32,30.31
6280,-0.36,0.95,-0.13,-31.08,-25.97,23.73
6300,-0.33,0.94,-0.12,-27.23,-19.74,17.5
6320,-0.41,1.04,-0.02,-21.35,-9.73,21.49
6340,-0.33,0.96,-0.04,-6.51,-14.07,1.89
6360,-0.33,0.9,-0.03,-11.69,-8.61,-2.38
6380,-0.37,0.91,-0.07,-2.59,-13.86,-3.15
6400,-0.36,0.93,-0.05,-1.05,-6.58,2.31
6420,-0.34,0.92,-0.05,5.39,1.47,1.4
6440,-0.35,0.92,-0.08,9.38,-0.49,-0.77
6460,-0.3,0.96,-0.08,6.86,6.72,-4.13
6480,-0.31,0.94,-0.09,12.53,18.55,-16.52
6500,-0.33,0.91,-0.11,14.84,28.56,-19.6
6520,-0.36,0.92,-0.11,14.63,34.93,-24.99
6540,-0.44,0.89,-0.1,20.3,20.72,-16.24
6560,-0.36,0.9,-0.1,23.52,11.83,-13.09
6580,-0.39,0.92,-0.1,26.81,9.87,-13.58
6600,-0.39,0.93,-0.19,23.59,11.62,-12.39
6620,-0.37,0.91,-0.17,21.77,11.62,-14.98
6640,-0.35,0.9,-0.14,22.96,25.76,-21.28
6660,-0.39,0.91,-0.18,25.41,32.62,-24.57
6680,-0.53,0.89,-0.25,8.4,16.8,-6.58
6700,-0.48,0.89,-0.26,-0.21,-3.01,14.91
6720,-0.4,0.92,-0.21,-17.01,-14.7,20.65
6740,-0.42,0.91,-0.25,-24.5,-19.95,22.12
6760,-0.4,0.92,-0.22,-33.46,-23.31,26.25
6780,-0.42,0.93,-0.21,-46.48,-32.48,35.84
6800,-0.5,1.23,-0.01,-28.35,-24.85,38.01
6820,-0.2,0.8,-0.22,-39.27,-32.9,24.99
6840,-0.3,0.98,-0.06,-37.94,-16.87,7.98
6860,-0.34,0.95,-0.07,-37.31,-10.57,-1.4
6880,-0.41,1.03,0.01,-32.69,-8.61,-1.4
6900,-0.3,0.86,-0.06,-56.98,-19.6,-2.03
6920,-0.33,0.87,0.09,-16.87,-9.24,2.59
6940,-0.34,0.89,0.02,-2.52,-4.55,4.9
6960,-0.37,0.95,-0.03,7.56,-9.17,6.86
6980,-0.33,0.95,-0.0,2.66,-8.54,3.5
7000,-0.33,0.92,0.01,11.48,0.0,3.92
7020,-0.3,0.95,-0.01,18.06,6.3,-1.82
7040,-0.33,0.95,-0.04,13.37,10.5,-7.91
7060,-0.34,0.98,-0.07,6.44,18.55,-10.22
7080,-0.33,0.92,-0.02,-1.89,23.45,-14.63
7100,-0.36,0.88,-0.01,11.2,22.4,-16.45
7120,-0.39,0.9,-0.06,31.01,18.9,-10.43
7140,-0.42,0.91,-0.07,44.38,6.37,-2.03
7160,-0.33,0.92,-0.05,44.8,5.74,-3.29
7180,-0.37,0.97,-0.04,64.75,7.21,-14.42
7200,-0.32,0.96,-0.15,50.47,19.25,-30.66
7220,-0.36,0.86,-0.11,56.21,34.16,-39.62
7240,-0.43,0.9,-0.17,50.61,23.87,-33.39
7260,-0.52,0.89,-0.26,30.73,9.38,-9.45
7280,-0.52,0.88,-0.32,17.92,-4.55,13.58
7300,-0.48,0.94,-0.35,-22.33,-27.44,34.16
7320,-0.39,1.0,-0.15,-25.62,-26.6,35.0
7340,-0.28,0.96,-0.19,-17.92,-19.11,20.44
7360,-0.36,0.9,-0.2,-26.95,-18.48,16.31
7380,-0.35,0.94,-0.16,-30.17,-21.56,14.84
7400,-0.36,0.94,-0.13,-29.12,-14.21,11.83
7420,-0.36,0.93,-0.13,-25.83,-16.38,9.52
7440,-0.37,0.94,-0.12,-26.11,-20.02,11.9
7460,-0.34,0.93,-0.08,-23.24,-17.85,9.38
7480,-0.33,0.9,-0.04,-15.89,-12.39,3.08
7500,-0.33,0.94,-0.04,-8.82,-5.11,-0.49
7520,-0.33,0.92,-0.03,0.63,0.07,-6.23
7540,-0.36,0.9,-0.07,6.09,8.89,-5.18
7560,-0.35,0.97,-0.1,4.2,16.24,-7.63
7580,-0.34,0.91,-0.05,8.33,22.19,-14.14
7600,-0.39,0.91,-0.1,13.79,16.66,-13.79
7620,-0.38,0.92,-0.1,18.69,14.07,-11.48
7640,-0.39,0.9,-0.09,23.59,12.11,-8.19
7660,-0.37,0.94,-0.14,18.41,10.36,-5.18
7680,-0.4,0.94,-0.15,13.23,8.61,-6.16
7700,-0.38,0.91,-0.14,13.3,10.92,-8.33
7720,-0.38,0.91,-0.15,12.74,11.9,-10.85
7740,-0.36,0.9,-0.11,19.88,16.38,-16.03
7760,-0.44,0.89,-0.16,22.05,12.53,-11.27
7780,-0.47,0.89,-0.23,11.62,2.8,8.33
7800,-0.45,0.94,-0.25,-13.86,-22.33,24.92
7820,-0.35,0.92,-0.16,-21.28,-22.75,25.55
7840,-0.35,0.95,-0.18,-13.79,-20.16,16.31
7860,-0.37,0.92,-0.17,-20.16,-20.16,18.76
7880,-0.35,0.92,-0.13,-22.54,-22.89,13.93
7900,-0.34,0.95,-0.1,-18.27,-17.78,9.1
7920,-0.34,0.92,-0.09,-11.13,-15.82,5.39
7940,-0.37,0.94,-0.13,-12.25,-17.22,5.6
7960,-0.35,0.96,-0.12,-14.21,-19.39,3.99
7980,-0.33,0.93,-0.07,-19.11,-17.92,-0.14
8000,-0.34,0.93,-0.07,-15.75,-17.85,-6.3
8020,-0.37,0.94,-0.03,-10.22,-11.41,-3.01
8040,-0.36,0.87,-0.0,-5.46,-2.31,2.8
8060,-0.35,0.92,-0.04,0.7,2.1,4.83
8080,-0.35,0.95,-0.04,6.3,4.76,2.66
8100,-0.35,0.91,-0.04,10.71,6.02,2.66
8120,-0.33,0.93,-0.07,9.73,9.1,1.12
8140,-0.32,0.97,-0.06,8.33,12.11,-8.47
8160,-0.34,0.91,-0.08,17.01,14.21,-14.42
8180,-0.37,0.94,-0.09,13.58,17.78,-12.67
8200,-0.38,0.94,-0.1,12.11,14.77,-13.51
8220,-0.38,0.92,-0.08,19.74,11.27,-14.14
8240,-0.36,0.91,-0.09,27.79,16.73,-15.82
8260,-0.38,0.91,-0.12,28.42,17.78,-18.62
8280,-0.43,0.93,-0.19,23.52,10.71,-15.19
8300,-0.39,0.91,-0.15,16.24,8.89,-13.02
8320,-0.36,0.92,-0.17,10.64,18.34,-14.14
8340,-0.42,0.91,-0.16,4.9,20.02,-13.93
8360,-0.42,0.94,-0.14,10.57,21.07,-13.3
8380,-0.43,0.87,-0.17,5.18,13.65,-7.14
8400,-0.42,0.91,-0.17,5.18,5.95,-4.2
8420,-0.45,0.9,-0.22,1.4,-2.31,-1.19
8440,-0.43,0.9,-0.19,-3.64,-3.22,3.43
8460,-0.45,0.91,-0.22,-16.17,-16.31,13.37
8480,-0.43,0.91,-0.19,-23.38,-25.2,18.41
8500,-0.38,0.91,-0.14,-23.59,-22.61,16.87
8520,-0.38,0.94,-0.13,-23.31,-19.74,7.98
8540,-0.36,0.94,-0.11,-24.36,-12.11,-6.44
8560,-0.37,0.94,-0.11,-36.75,-1.75,-11.48
8580,-0.41,0.9,-0.07,-29.05,4.13,-12.67
8600,-0.39,0.9,-0.06,-18.83,13.44,-14.56
8620,-0.39,0.9,-0.05,-19.39,23.17,-17.22
8640,-0.43,0.88,-0.06,-5.39,22.33,-16.94
8660,-0.46,0.89,-0.09,3.15,18.41,-7.91
8680,-0.44,0.89,-0.07,6.37,10.92,-1.61
8700,-0.42,0.89,-0.08,19.88,3.22,-2.94
8720,-0.41,0.89,-0.09,30.03,2.8,-5.95
8740,-0.41,0.94,-0.14,19.53,8.54,-13.79
8760,-0.45,0.9,-0.14,13.37,6.58,-16.87
8780,-0.45,0.91,-0.16,7.14,10.92,-11.83
8800,-0.45,0.89,-0.15,-5.25,7.14,-9.8
8820,-0.45,0.87,-0.1,0.77,3.71,-10.01
8840,-0.45,0.75,-0.16,-18.13,-19.39,4.2
8860,-0.54,0.75,0.1,-48.65,-73.92,80.99
8880,-0.75,1.13,-0.45,22.4,-51.52,49.98
8900,-0.51,1.01,-0.28,-56.21,-93.73,98.56
8920,-0.29,1.12,-0.06,-64.47,-21.49,97.86
8940,-0.16,1.24,0.11,-56.63,93.38,67.9
8960,-0.43,1.32,0.19,-157.36,30.73,50.61
8980,-0.26,0.82,-0.1,-242.06,14.35,16.45
9000,-0.07,0.71,0.02,-164.01,39.48,1.96
9020,-0.11,0.75,0.11,-119.84,18.41,-1.33
9040,-0.2,0.68,0.22,-60.48,52.57,24.71
9060,-0.44,0.79,0.14,-21.0,41.86,35.98
9080,-0.42,0.85,0.18,-18.06,2.59,27.16
9100,-0.25,0.97,0.28,-1.82,-20.93,16.24
9120,-0.15,0.99,0.31,-0.28,-19.81,6.79
9140,-0.18,0.94,0.31,-11.13,-11.27,-1.33
9160,-0.24,0.89,0.36,1.54,-6.37,-3.92
9180,-0.25,0.86,0.35,9.52,-6.65,-2.59
9200,-0.21,0.88,0.35,12.25,-7.21,-1.26
9220,-0.19,0.9,0.32,18.27,-0.7,-5.25
9240,-0.2,0.91,0.28,20.44,2.03,-4.41
9260,-0.22,0.92,0.28,23.52,6.16,-6.02
9280,-0.24,0.93,0.25,24.78,7.28,-6.79
9300,-0.25,0.93,0.23,23.94,8.61,-5.11
9320,-0.26,0.96,0.22,23.52,11.48,-2.73
9340,-0.27,0.97,0.21,16.24,16.52,-1.96
9360,-0.29,0.97,0.19,13.93,16.66,0.0
9380,-0.31,0.98,0.19,10.64,12.53,-3.22
9400,-0.3,0.97,0.19,7.42,10.85,-3.64
9420,-0.29,0.96,0.17,3.36,9.94,-2.24
9440,-0.28,0.95,0.17,1.89,6.37,-4.27
9460,-0.28,0.96,0.18,0.28,6.86,-3.78
9480,-0.3,0.96,0.18,-0.21,4.69,-3.43
9500,-0.3,0.94,0.17,-0.28,0.21,-3.36
9520,-0.29,0.93,0.19,2.73,-2.8,-2.94
9540,-0.29,0.93,0.2,6.72,-5.53,-1.82
9560,-0.27,0.92,0.2,9.94,-7.49,-0.21
9580,-0.27,0.94,0.19,13.3,-8.4,-0.77
