t,ax,ay,az,gx,gy,gz
31190, 0.62, -0.24, 0.77, 3.36, -3.08, 4.34
31191, 0.62, -0.23, 0.77, 1.54, -4.76, 4.27
31192, 0.62, -0.24, 0.77, 2.03, -5.46, 3.57
31193, 0.63, -0.23, 0.77, 0.63, -4.34, 3.57
31194, 0.63, -0.24, 0.76, 0.28, -4.27, 3.50
31195, 0.63, -0.23, 0.76, 0.70, -3.57, 3.92
31196, 0.63, -0.24, 0.76, 0.21, -2.59, 3.78
31197, 0.63, -0.24, 0.77, 0.98, -2.10, 3.29
31198, 0.63, -0.24, 0.76, 1.26, -2.45, 2.73
31199, 0.63, -0.23, 0.76, 1.19, -1.82, 2.52
31200, 0.63, -0.24, 0.76, 0.63, -2.17, 1.96
31201, 0.63, -0.24, 0.76, 0.91, -2.24, 1.89
31202, 0.64, -0.24, 0.76, 0.35, -1.33, 1.68
31203, 0.64, -0.24, 0.76, 0.00, 0.14, 1.05
31204, 0.63, -0.25, 0.76, 0.49, -0.21, 1.05
31205, 0.63, -0.24, 0.76, 0.42, -0.70, 0.98
31206, 0.63, -0.24, 0.76, 0.07, 0.42, 0.84
31207, 0.63, -0.24, 0.76, 0.35, 0.07, 1.05
31208, 0.63, -0.24, 0.76, 0.28, 0.42, 0.63
31209, 0.62, -0.24, 0.76, 0.14, -0.07, 0.07
31210, 0.62, -0.24, 0.76, 0.42, -0.84, 0.21
31211, 0.63, -0.24, 0.76, 0.14, -0.49, -0.35
31212, 0.62, -0.25, 0.76, 0.42, -0.56, -0.28
31213, 0.63, -0.25, 0.77, 0.00, -0.14, 0.14
31214, 0.62, -0.24, 0.76, -0.28, -0.28, 0.35
31215, 0.62, -0.25, 0.76, 0.28, -1.40, 0.84
31216, 0.62, -0.25, 0.76, 0.28, -2.24, 1.33
31217, 0.62, -0.24, 0.76, 0.07, -1.75, 1.12
31218, 0.62, -0.24, 0.76, -0.35, -2.38, 0.91
31219, 0.63, -0.25, 0.76, -0.56, -2.52, 0.63
31220, 0.63, -0.25, 0.76, -0.35, -2.10, 0.28
31221, 0.63, -0.25, 0.76, -0.70, -2.24, 0.14
31222, 0.63, -0.24, 0.76, -0.98, -2.45, 0.35
31223, 0.63, -0.25, 0.76, -1.54, -2.24, 0.28
31224, 0.63, -0.24, 0.76, -1.19, -1.61, 0.49
31225, 0.63, -0.24, 0.76, -1.40, -1.19, 0.42
31226, 0.63, -0.25, 0.76, -1.19, -0.84, 0.14
31227, 0.63, -0.24, 0.76, -1.19, -0.84, 0.14
31228, 0.63, -0.24, 0.77, -1.61, -0.49, 0.28
31229, 0.63, -0.25, 0.76, -1.75, -0.84, 0.14
31230, 0.62, -0.25, 0.76, -1.40, -0.35, -0.49
31231, 0.63, -0.25, 0.76, -1.47, -0.63, -0.56
31232, 0.63, -0.25, 0.76, -0.56, -0.91, -0.49
31233, 0.64, -0.25, 0.76, -1.12, 0.77, -1.68
31234, 0.63, -0.26, 0.75, -1.68, -0.98, -1.68
31235, 0.62, -0.26, 0.76, 0.14, -2.52, 1.40
31236, 0.63, -0.25, 0.76, 0.49, -2.24, 1.54
31237, 0.63, -0.25, 0.76, -17.92, -2.17, 0.70
31238, 0.63, -0.25, 0.76, 0.14, -1.82, 0.28
31239, 0.63, -0.25, 0.76, -0.56, -1.05, -0.14
31240, 0.63, -0.24, 0.76, -0.91, -0.63, -0.35
31241, 0.63, -0.25, 0.76, -1.40, -0.70, -0.77
31242, 0.63, -0.25, 0.76, -1.05, -1.19, -0.42
31243, 0.63, -0.25, 0.76, -0.56, -1.68, -0.07
31244, 0.63, -0.25, 0.76, -0.07, -1.12, 0.42
31245, 0.63, -0.25, 0.76, -0.49, -1.47, 0.56
31246, 0.63, -0.25, 0.76, -0.07, -1.26, 0.14
31247, 0.63, -0.25, 0.76, -0.14, -1.47, 0.21
31248, 0.63, -0.25, 0.76, -0.35, -1.19, -0.07
31249, 0.63, -0.25, 0.76, 0.07, -0.77, 0.00
31250, 0.63, -0.25, 0.76, -0.42, -0.56, -0.21
31251, 0.62, -0.25, 0.76, -0.28, -0.42, -0.07
31252, 0.63, -0.26, 0.76, -0.21, -0.77, 0.21
31253, 0.63, -0.25, 0.76, -0.42, -0.49, 0.07
31254, 0.63, -0.25, 0.76, -0.28, -0.56, -0.07
31255, 0.63, -0.25, 0.76, -0.07, -0.56, 0.00
31256, 0.63, -0.26, 0.76, 0.07, -0.70, 0.35
31257, 0.63, -0.26, 0.76, 0.14, -0.98, 0.21
31258, 0.63, -0.25, 0.76, -0.07, -1.19, 0.00
31259, 0.63, -0.25, 0.76, -0.35, -1.26, -0.07
31260, 0.63, -0.25, 0.76, 0.28, -1.05, 0.28
31261, 0.62, -0.25, 0.76, -0.21, -0.98, 0.14
31262, 0.62, -0.26, 0.76, 0.00, -1.40, -0.14
31263, 0.63, -0.25, 0.76, 0.00, -1.61, -0.07
31264, 0.63, -0.25, 0.76, -0.07, -1.68, -0.07
31265, 0.63, -0.25, 0.76, 0.14, -1.05, 0.14
31266, 0.63, -0.25, 0.76, -0.21, -0.63, 0.35
31267, 0.63, -0.26, 0.76, 0.42, -0.42, 0.63
31268, 0.63, -0.25, 0.76, 0.56, -0.56, 0.56
31269, 0.62, -0.26, 0.76, 0.70, -1.05, 0.42
31270, 0.63, -0.25, 0.76, 0.42, -0.84, 0.21
31271, 0.63, -0.25, 0.76, 0.49, -0.63, 0.00
31272, 0.62, -0.25, 0.76, 0.49, -0.28, 0.00
31273, 0.62, -0.26, 0.76, 0.42, -0.49, 0.14
31274, 0.62, -0.25, 0.76, 0.07, -1.05, 0.28
31275, 0.63, -0.26, 0.76, -0.14, -0.91, 0.21
31276, 0.63, -0.25, 0.76, 0.42, -0.42, 0.63
31277, 0.62, -0.26, 0.76, -0.07, -0.77, 0.70
31278, 0.62, -0.26, 0.76, 0.35, -2.17, 1.05
31279, 0.62, -0.25, 0.76, 0.07, -2.38, 1.47
31280, 0.63, -0.25, 0.76, 0.98, -1.89, 1.05
31281, 0.63, -0.25, 0.76, 0.21, -1.40, 0.77
31282, 0.62, -0.25, 0.76, 0.35, -1.61, 0.49
31283, 0.63, -0.25, 0.76, 0.07, -0.98, 0.49
31284, 0.63, -0.25, 0.76, -0.14, -0.07, 0.35
31285, 0.62, -0.25, 0.76, 0.00, -0.14, 0.28
31286, 0.62, -0.25, 0.76, 0.14, -0.21, 0.42
31287, 0.63, -0.25, 0.76, 0.14, -0.14, 0.42
31288, 0.63, -0.26, 0.76, 0.42, -0.21, 0.35
31289, 0.62, -0.25, 0.76, 0.77, 0.00, 0.42
31290, 0.62, -0.25, 0.76, 1.05, -0.35, 0.56
31291, 0.62, -0.26, 0.76, 1.26, -0.42, 0.49
31292, 0.62, -0.26, 0.76, 0.56, -0.77, 0.42
31293, 0.62, -0.26, 0.76, 0.35, -1.19, 0.49
31294, 0.62, -0.26, 0.76, 0.07, -1.47, 0.56
31295, 0.62, -0.26, 0.76, -0.28, -2.59, 0.84
31296, 0.63, -0.26, 0.76, 0.35, -2.45, 1.05
31297, 0.63, -0.26, 0.76, -0.28, -1.96, 0.91
31298, 0.62, -0.26, 0.76, -0.07, -2.24, 0.77
31299, 0.62, -0.26, 0.76, -0.21, -1.96, 0.84
31300, 0.62, -0.26, 0.76, 0.00, -2.10, 0.49
31301, 0.62, -0.26, 0.76, -0.21, -2.66, 0.21
31302, 0.63, -0.25, 0.76, 0.00, -2.52, 0.35
31303, 0.62, -0.25, 0.76, -0.14, -2.31, 0.56
31304, 0.63, -0.26, 0.76, -0.28, -2.24, 0.42
31305, 0.63, -0.25, 0.76, -0.35, -1.61, 0.49
31306, 0.63, -0.26, 0.76, -0.42, -1.40, 0.07
31307, 0.63, -0.25, 0.76, -0.49, -1.33, -0.21
31308, 0.63, -0.26, 0.76, -0.56, -1.05, -0.07
31309, 0.63, -0.26, 0.76, -0.28, -1.26, 0.07
31310, 0.62, -0.26, 0.76, -0.14, -1.40, -0.14
31311, 0.63, -0.25, 0.76, 0.07, -1.54, -0.07
31312, 0.63, -0.26, 0.76, 0.21, -1.47, -0.07
31313, 0.63, -0.26, 0.76, 0.00, -0.84, -0.21
31314, 0.62, -0.26, 0.76, 0.28, -1.33, -0.14
31315, 0.62, -0.26, 0.76, 0.00, -1.47, 0.28
31316, 0.63, -0.25, 0.76, 0.42, -1.33, 0.28
31317, 0.63, -0.26, 0.76, 0.63, -1.19, 0.07
31318, 0.63, -0.26, 0.76, -0.21, -1.33, -0.07
31319, 0.63, -0.26, 0.76, -0.77, -1.12, -0.35
31320, 0.63, -0.26, 0.76, -0.91, -1.05, -0.07
31321, 0.62, -0.26, 0.75, -0.84, -1.47, 0.56
31322, 0.62, -0.26, 0.76, 0.14, -3.22, 1.96
31323, 0.62, -0.26, 0.75, 0.35, -4.27, 2.73
31324, 0.63, -0.26, 0.76, 0.21, -3.99, 2.45
31325, 0.63, -0.26, 0.76, -1.05, -2.94, 1.89
31326, 0.63, -0.27, 0.76, -1.47, -2.03, 1.05
31327, 0.62, -0.26, 0.75, -0.42, -2.59, 1.47
31328, 0.63, -0.26, 0.76, -1.12, -3.15, 1.75
31329, 0.63, -0.26, 0.75, -1.68, -1.47, 1.82
31330, 0.63, -0.26, 0.75, -1.26, -1.75, 1.75
31331, 0.63, -0.26, 0.76, -0.56, -1.47, 1.68
31332, 0.63, -0.27, 0.76, 0.49, -2.03, 1.05
31333, 0.63, -0.26, 0.75, 0.42, -2.17, 0.63
31334, 0.63, -0.26, 0.75, 0.70, -2.80, 0.77
31335, 0.63, -0.27, 0.75, 0.56, -2.80, 0.98
31336, 0.63, -0.27, 0.75, 0.49, -1.96, 0.91
31337, 0.63, -0.27, 0.75, 0.35, -1.40, 0.42
31338, 0.63, -0.26, 0.75, 0.49, -0.91, 0.21
31339, 0.64, -0.26, 0.75, -0.07, -0.14, 0.07
31340, 0.64, -0.26, 0.75, -0.56, 0.42, -0.14
31341, 0.63, -0.27, 0.75, 0.21, 0.42, -0.14
31342, 0.63, -0.27, 0.75, 0.56, 0.63, -0.21
31343, 0.63, -0.26, 0.75, 0.35, 0.49, -0.56
31344, 0.63, -0.26, 0.75, 0.42, 0.35, -0.63
31345, 0.63, -0.26, 0.76, 0.42, 0.70, -0.63
31346, 0.63, -0.26, 0.76, 0.35, 0.28, -0.70
31347, 0.63, -0.27, 0.76, 0.42, 0.56, -0.63
31348, 0.62, -0.26, 0.76, 0.35, 0.63, -0.63
31349, 0.63, -0.26, 0.76, 0.07, 0.84, -0.56
31350, 0.62, -0.27, 0.76, -0.28, 0.00, -0.70
31351, 0.62, -0.27, 0.76, 0.07, -0.35, -0.07
31352, 0.62, -0.26, 0.76, 0.56, -0.49, 0.21
31353, 0.63, -0.26, 0.76, 0.21, -0.14, -0.21
31354, 0.63, -0.26, 0.76, 0.63, -0.14, -0.42
31355, 0.62, -0.26, 0.76, 0.14, -0.42, -0.14
31356, 0.63, -0.26, 0.76, 0.21, -0.35, -0.07
31357, 0.62, -0.26, 0.76, 0.21, -0.21, -0.07
31358, 0.62, -0.26, 0.76, 0.49, 0.00, 0.07
31359, 0.62, -0.26, 0.76, 0.42, -0.49, 0.28
31360, 0.62, -0.26, 0.76, 0.56, -0.56, 0.42
31361, 0.62, -0.26, 0.76, 0.84, 0.21, 0.49
31362, 0.62, -0.26, 0.76, 1.40, -0.07, 0.49
31363, 0.62, -0.26, 0.76, 1.12, 0.07, 0.63
31364, 0.62, -0.26, 0.76, 0.98, -0.49, 0.56
31365, 0.62, -0.27, 0.76, 1.05, -0.63, 0.42
31366, 0.62, -0.27, 0.76, 0.91, -1.54, 0.42
31367, 0.62, -0.27, 0.76, 0.21, -2.24, 0.49
31368, 0.50, -0.27, 0.76, 0.28, -2.52, 0.77
31369, 0.62, -0.26, 0.76, 0.35, -2.52, 0.91
31370, 0.62, -0.26, 0.76, 0.14, -1.89, 0.70
31371, 0.62, -0.26, 0.76, -0.07, -1.89, 0.49
31372, 0.62, -0.26, 0.76, 0.07, -2.31, 0.21
31373, 0.63, -0.26, 0.76, -0.56, -1.82, 0.35
31374, 0.62, -0.26, 0.76, -0.28, -1.47, 0.21
31375, 0.62, -0.26, 0.76, -0.35, -2.03, 0.07
31376, 0.62, -0.26, 0.76, -0.14, -2.24, 0.07
31377, 0.63, -0.26, 0.76, -0.07, -1.82, 0.07
31378, 0.62, -0.26, 0.76, -0.14, -1.47, -0.21
31379, 0.63, -0.26, 0.76, 0.42, -1.82, -0.21
31380, 0.62, -0.26, 0.76, 0.07, -1.19, -0.14
31381, 0.62, -0.26, 0.76, 0.21, -1.40, -0.28
31382, 0.63, -0.26, 0.75, -0.63, -0.77, -1.05
31383, 0.62, -0.26, 0.75, -17.36, -1.82, -0.28
31384, 0.62, -0.26, 0.76, 0.91, -2.24, 0.35
31385, 0.63, -0.26, 0.76, 0.14, -1.12, -0.49
31386, 0.62, -0.26, 0.76, 0.63, -0.91, -0.84
31387, 0.62, -0.26, 0.76, 0.49, -0.56, -0.84
31388, 0.63, -0.26, 0.76, -0.21, 17.50, -1.54
31389, 0.62, -0.27, 0.76, 0.42, -0.98, -1.05
31390, 0.62, -0.27, 0.76, 0.42, -1.12, -0.63
31391, 0.62, -0.26, 0.76, 0.98, -1.61, -0.77
31392, 0.62, -0.26, 0.76, 0.84, -2.10, -0.63
31393, 0.63, -0.26, 0.76, 0.91, -1.47, -0.21
31394, 0.63, -0.26, 0.76, 0.14, -0.84, -0.42
31395, 0.63, -0.26, 0.76, 0.77, -0.63, -0.42
31396, 0.62, -0.26, 0.76, 0.14, -0.42, -0.63
31397, 0.63, -0.26, 0.76, 0.49, -0.42, -0.49
31398, 0.62, -0.26, 0.76, -0.07, -1.05, -0.42
31399, 0.62, -0.26, 0.76, 0.42, -1.19, 0.07
31400, 0.63, -0.26, 0.76, 0.56, -1.33, 0.28
31401, 0.62, -0.26, 0.76, 1.26, -1.54, 0.35
31402, 0.63, -0.26, 0.76, 0.77, -1.33, 0.35
31403, 0.63, -0.26, 0.76, 0.14, -1.68, -0.07
31404, 0.63, -0.26, 0.76, 0.35, -1.82, 0.00
31405, 0.63, -0.25, 0.76, 0.00, -1.19, -0.07
31406, 0.63, -0.26, 0.76, 0.42, -1.05, -0.35
31407, 0.63, -0.26, 0.76, 0.91, -0.21, -0.56
31408, 0.62, -0.25, 0.76, 1.26, -0.70, 0.00
31409, 0.63, -0.26, 0.76, 1.47, -1.19, 0.77
31410, 0.63, -0.25, 0.76, 2.10, -0.56, 0.49
31411, 0.63, -0.25, 0.76, 1.61, -0.49, -0.56
31412, 0.64, -0.26, 0.76, 0.63, 0.91, -2.03
31413, 0.63, -0.26, 0.76, 2.87, 0.49, -1.47
31414, 0.62, -0.25, 0.76, 2.94, -0.42, -0.21
31415, 0.62, -0.24, 0.76, 1.96, -0.84, -0.56
31416, 0.63, -0.25, 0.76, 0.84, -0.91, -0.28
31417, 0.62, -0.26, 0.76, 2.66, -1.47, 1.05
31418, 0.62, -0.24, 0.77, 2.17, -0.77, 1.33
31419, 0.62, -0.24, 0.77, 1.40, 0.07, 0.42
31420, 0.62, -0.25, 0.76, 0.00, 0.00, -0.21
31421, 0.62, -0.25, 0.77, 0.28, -0.49, 0.00
31422, 0.62, -0.25, 0.77, -0.14, -0.14, 0.35
31423, 0.62, -0.25, 0.76, -0.07, -0.07, 0.07
31424, 0.62, -0.25, 0.76, 0.14, -0.42, 0.07
31425, 0.63, -0.25, 0.76, 0.42, -0.49, 0.35
31426, 0.62, -0.26, 0.76, 0.21, -0.77, 0.63
31427, 0.62, -0.25, 0.76, 0.49, -0.91, 0.77
31428, 0.62, -0.25, 0.76, 0.91, -0.84, 1.26
31429, 0.62, -0.25, 0.76, 0.42, -0.35, 1.19
31430, 0.62, -0.25, 0.76, 0.35, -1.19, 1.12
31431, 0.62, -0.25, 0.77, 0.21, -1.05, 0.77
31432, 0.62, -0.25, 0.76, 0.42, -1.33, 0.84
31433, 0.62, -0.25, 0.77, 0.42, -1.26, 0.70
31434, 0.62, -0.26, 0.76, 0.14, -0.84, 0.14
31435, 0.62, -0.26, 0.77, 0.42, -1.19, 0.28
31436, 0.62, -0.26, 0.76, 0.28, -1.26, 0.56
31437, 0.62, -0.26, 0.76, -0.35, -2.31, 0.70
31438, 0.62, -0.26, 0.76, 0.00, -2.45, 1.26
31439, 0.62, -0.26, 0.77, 0.35, -1.82, 1.33
31440, 0.62, -0.25, 0.77, 0.56, -1.96, 1.05
31441, 0.62, -0.25, 0.76, 0.21, -2.17, 0.98
31442, 0.62, -0.25, 0.77, 0.07, -2.24, 0.70
31443, 0.62, -0.25, 0.76, -0.56, -2.17, 0.49
31444, 0.62, -0.25, 0.76, -0.56, -2.03, -0.28
31445, 0.62, -0.26, 0.76, -0.14, -1.75, -0.35
31446, 0.62, -0.26, 0.76, -0.14, -2.17, -0.21
31447, 0.62, -0.25, 0.76, -0.56, -2.31, 0.14
31448, 0.62, -0.25, 0.76, -0.07, -2.38, 0.35
31449, 0.63, -0.25, 0.76, 0.28, -1.96, 0.35
31450, 0.62, -0.26, 0.76, -0.21, -1.61, 0.21
31451, 0.62, -0.25, 0.76, -0.07, -2.45, 0.28
31452, 0.62, -0.26, 0.76, 0.42, -3.36, 0.56
31453, 0.62, -0.26, 0.75, 1.68, -6.65, 1.68
31454, 0.62, -0.26, 0.76, 2.66, -8.12, 1.96
31455, 0.63, -0.25, 0.76, 0.56, -5.25, 0.77
31456, 0.64, -0.25, 0.76, 0.00, -3.15, 0.35
31457, 0.63, -0.25, 0.76, 0.28, -3.08, 1.05
31458, 0.63, -0.25, 0.76, 0.14, -2.17, 1.26
31459, 0.63, -0.24, 0.76, -0.07, -0.98, 1.12
31460, 0.63, -0.25, 0.76, 0.14, -1.68, 0.63
31461, 0.63, -0.25, 0.76, 0.28, -1.40, 0.42
31462, 0.63, -0.25, 0.76, -0.14, -1.19, 0.63
31463, 0.63, -0.25, 0.75, -0.49, -0.91, 0.49
31464, 0.63, -0.26, 0.75, -0.21, -0.84, 0.63
31465, 0.63, -0.26, 0.75, -0.28, -0.91, 0.28
31466, 0.63, -0.26, 0.75, -0.07, -0.98, 0.35
31467, 0.63, -0.26, 0.75, 0.00, -0.56, 0.49
31468, 0.63, -0.26, 0.75, -0.49, -1.54, 0.49
31469, 0.63, -0.26, 0.75, 0.56, -2.66, 1.05
31470, 0.64, -0.26, 0.75, 0.07, -1.89, 0.77
31471, 0.63, -0.26, 0.75, 0.07, -0.91, -0.07
31472, 0.63, -0.26, 0.75, -0.14, -0.98, -0.14
31473, 0.63, -0.25, 0.76, -0.07, -1.89, 0.21
31474, 0.63, -0.25, 0.76, -0.35, -1.12, 0.28
31475, 0.63, -0.26, 0.75, -17.78, -1.12, 0.84
31476, 0.64, -0.25, 0.76, 0.21, -1.12, 0.91
31477, 0.63, -0.25, 0.75, 0.00, -0.14, 0.70
31478, 0.63, -0.26, 0.75, 0.98, -1.05, 1.26
31479, 0.63, -0.26, 0.75, 0.77, -0.91, 1.19
31480, 0.63, -0.25, 0.76, 0.35, -0.98, 1.12
31481, 0.63, -0.25, 0.76, -0.21, -0.35, 0.63
31482, 0.63, -0.25, 0.75, 0.14, -0.21, 0.63
31483, 0.63, -0.26, 0.76, -0.35, 0.14, 0.14
31484, 0.64, -0.26, 0.75, -17.85, 0.70, -0.21
31485, 0.63, -0.26, 0.75, -0.42, 0.21, -0.28
31486, 0.63, -0.26, 0.76, -0.49, 0.70, -0.28
31487, 0.63, -0.27, 0.76, -0.49, 0.42, 0.14
31488, 0.62, -0.26, 0.75, -0.35, 0.49, 0.00
31489, 0.63, -0.26, 0.76, 0.42, -0.21, 0.00
31490, 0.63, -0.26, 0.76, 0.70, 0.21, -0.28
31491, 0.63, -0.26, 0.76, 1.05, 0.42, -0.56
31492, 0.63, -0.25, 0.76, 0.63, 1.33, -1.26
31493, 0.62, -0.26, 0.75, 0.77, 1.61, -1.68
31494, 0.62, -0.26, 0.76, 0.42, 0.14, -0.63
31495, 0.62, -0.25, 0.76, 0.70, -0.42, 0.00
31496, 0.62, -0.24, 0.76, 1.19, 0.91, -0.98
31497, 0.63, -0.25, 0.76, 0.91, 2.31, -2.73
31498, 0.62, -0.26, 0.76, 1.68, 1.89, -2.73
31499, 0.62, -0.26, 0.76, 0.84, 2.31, -2.66
31500, 0.62, -0.26, 0.76, 1.75, 0.77, -2.17
31501, 0.60, -0.26, 0.76, 2.03, -0.70, -0.49
31502, 0.62, -0.25, 0.77, 2.03, -1.26, 0.07
31503, 0.62, -0.25, 0.77, 0.84, -0.49, -0.14
31504, 0.62, -0.25, 0.76, 1.40, -0.28, -0.91
31505, 0.62, -0.26, 0.77, 1.61, -1.40, -1.12
31506, 0.61, -0.25, 0.77, 1.19, -2.10, -0.77
31507, 0.62, -0.25, 0.76, 0.63, -2.45, -0.70
31508, 0.62, -0.25, 0.77, 0.49, -3.64, -0.28
31509, 0.62, -0.25, 0.76, 1.05, -4.34, 0.91
31510, 0.62, -0.25, 0.77, 2.24, -5.25, 2.03
31511, 0.62, -0.23, 0.78, 1.68, -4.34, 2.31
31512, 0.65, -0.21, 0.77, 0.49, 1.33, -0.28
31513, 0.65, -0.24, 0.75, -3.64, 2.87, -5.95
31514, 0.64, -0.26, 0.75, -5.11, 1.47, -7.21
31515, 0.63, -0.26, 0.77, -4.48, 1.61, -6.51
31516, 0.65, -0.25, 0.76, -6.37, 7.21, -7.63
31517, 0.65, -0.26, 0.75, -7.28, 11.76, -10.57
31518, 0.63, -0.26, 0.77, -4.90, 15.68, -9.03
31519, 0.58, -0.24, 0.77, -3.36, 10.22, -3.08
31520, 0.57, -0.25, 0.78, -0.91, 1.12, -0.14
31521, 0.58, -0.24, 0.78, 1.96, -2.66, 1.47
31522, 0.60, -0.23, 0.79, 3.29, -4.48, 0.91
31523, 0.61, -0.23, 0.79, 3.71, -3.85, -0.42
31524, 0.61, -0.23, 0.78, 1.68, -1.40, -1.40
31525, 0.61, -0.24, 0.78, 1.05, -0.42, -2.24
31526, 0.61, -0.24, 0.78, 0.00, -0.07, -1.61
31527, 0.61, -0.24, 0.78, -1.19, 0.21, -1.75
31528, 0.61, -0.24, 0.77, -1.96, -0.14, -1.89
31529, 0.62, -0.24, 0.77, -0.98, 0.28, -1.19
31530, 0.62, -0.24, 0.77, -0.28, 0.21, -0.49
31531, 0.61, -0.25, 0.77, -0.21, 0.70, -0.49
31532, 0.61, -0.24, 0.77, 0.21, 0.42, -0.35
31533, 0.61, -0.23, 0.77, 0.07, -0.70, -0.42
31534, 0.61, -0.23, 0.78, 0.49, -0.63, -0.28
31535, 0.61, -0.24, 0.78, 0.07, 0.42, -0.35
31536, 0.60, -0.24, 0.78, 0.28, 0.56, -0.84
31537, 0.61, -0.24, 0.78, 0.42, 0.14, -0.98
31538, 0.61, -0.24, 0.79, 0.70, 0.84, -0.70
31539, 0.60, -0.24, 0.78, 0.42, -0.07, 0.07
31540, 0.60, -0.24, 0.78, 0.35, -0.07, 0.70
31541, 0.61, -0.24, 0.78, 0.49, -0.07, 0.70
31542, 0.60, -0.24, 0.78, 1.19, -0.98, 0.84
31543, 0.61, -0.23, 0.78, 0.91, -0.98, 0.84
31544, 0.61, -0.24, 0.78, 0.49, -0.84, 0.42
31545, 0.61, -0.24, 0.79, 0.91, -0.49, 0.63
31546, 0.60, -0.24, 0.78, 0.70, -0.70, 0.63
31547, 0.61, -0.24, 0.79, 0.70, -0.91, 0.70
31548, 0.61, -0.24, 0.78, 0.98, -0.70, 0.77
31549, 0.61, -0.24, 0.78, 0.77, -0.77, 0.56
31550, 0.61, -0.24, 0.78, 1.26, -1.05, 1.05
31551, 0.60, -0.24, 0.78, 0.42, -1.68, 1.26
31552, 0.60, -0.24, 0.78, 1.12, -1.40, 1.05
31553, 0.61, -0.24, 0.78, 0.98, -1.61, 0.84
31554, 0.61, -0.24, 0.78, 1.26, -1.19, 0.98
31555, 0.60, -0.24, 0.78, 1.47, -0.91, 0.77
31556, 0.60, -0.24, 0.78, 0.91, -0.91, 0.70
31557, 0.61, -0.24, 0.78, 1.12, -0.63, 0.70
31558, 0.61, -0.24, 0.78, 0.56, -0.70, 0.49
31559, 0.61, -0.24, 0.78, 0.56, -0.49, -0.07
31560, 0.60, -0.24, 0.78, 0.84, -0.28, -0.35
31561, 0.60, -0.24, 0.78, 1.05, -0.63, 0.07
31562, 0.60, -0.24, 0.78, 0.56, -0.70, 0.00
31563, 0.60, -0.24, 0.78, 0.49, -0.98, 0.49
31564, 0.60, -0.24, 0.78, 0.21, -1.68, 0.63
31565, 0.60, -0.24, 0.78, 0.21, -1.54, 0.42
31566, 0.61, -0.24, 0.78, 0.21, -1.47, 0.63
31567, 0.60, -0.24, 0.78, -0.21, -1.54, 0.77
31568, 0.60, -0.24, 0.78, -0.42, -1.47, 0.42
31569, 0.60, -0.23, 0.78, -0.28, -2.10, 0.14
31570, 0.60, -0.24, 0.79, -0.07, -1.89, 0.00
31571, 0.60, -0.24, 0.78, 0.00, -1.75, 0.35
31572, 0.61, -0.23, 0.78, -0.28, -1.68, -0.14
31573, 0.61, -0.24, 0.78, -0.49, -1.19, -0.14
31574, 0.60, -0.24, 0.79, 0.00, -0.91, -0.14
31575, 0.60, -0.24, 0.78, -0.28, -1.47, -0.14
31576, 0.60, -0.24, 0.78, -0.49, -1.47, 0.00
31577, 0.61, -0.23, 0.78, 0.07, -1.54, 0.00
31578, 0.60, -0.24, 0.78, -0.35, -1.12, -0.14
31579, 0.60, -0.24, 0.78, -0.07, -1.05, -0.21
31580, 0.61, -0.24, 0.78, -0.49, -0.70, -0.49
31581, 0.61, -0.24, 0.78, -0.77, -0.56, -0.84
31582, 0.61, -0.24, 0.79, -1.12, 0.07, -0.42
31583, 0.60, -0.24, 0.78, -0.84, -0.07, -0.49
31584, 0.60, -0.24, 0.79, -0.63, -0.28, -0.63
31585, 0.61, -0.24, 0.79, -0.63, -0.56, -0.49
31586, 0.60, -0.24, 0.78, -0.35, -0.42, -0.42
31587, 0.60, -0.24, 0.78, -0.28, -0.35, -0.49
31588, 0.60, -0.24, 0.78, -0.42, -0.35, -0.63
31589, 0.60, -0.24, 0.78, -0.49, -0.35, -0.49
31590, 0.61, -0.24, 0.78, -0.28, -0.14, -0.35
31591, 0.60, -0.24, 0.78, -0.56, -0.77, -0.35
31592, 0.60, -0.24, 0.78, -0.28, -1.19, -0.21
31593, 0.61, -0.24, 0.79, -0.07, -1.82, 0.00
31594, 0.61, -0.24, 0.79, 0.70, -0.70, 0.07
31595, 0.61, -0.24, 0.78, 0.70, -0.84, 0.63
31596, 0.60, -0.24, 0.78, 1.05, -0.35, 0.56
31597, 0.60, -0.24, 0.79, 0.70, -0.63, 0.49
31598, 0.60, -0.24, 0.79, 0.35, -0.56, 0.56
31599, 0.60, -0.24, 0.79, 0.49, -0.49, 0.21
31600, 0.60, -0.23, 0.79, 0.56, -0.49, -0.28
31601, 0.60, -0.24, 0.79, 0.98, -0.77, 0.07
31602, 0.60, -0.24, 0.79, 1.12, -0.84, 0.28
31603, 0.60, -0.24, 0.79, 0.70, -0.21, 0.21
31604, 0.60, -0.24, 0.79, 0.84, -0.42, 0.35
31605, 0.60, -0.24, 0.79, 0.56, -0.42, 0.56
31606, 0.60, -0.24, 0.78, 0.70, -0.63, 0.56
31607, 0.60, -0.24, 0.79, 0.77, -1.19, 0.49
31608, 0.60, -0.24, 0.78, 1.12, -1.40, 0.63
31609, 0.60, -0.24, 0.79, 1.05, -0.98, 0.56
31610, 0.60, -0.24, 0.79, 0.77, -0.70, 0.77
31611, 0.60, -0.23, 0.79, 0.70, -0.70, 0.70
31612, 0.60, -0.23, 0.79, 0.77, -0.91, 0.63
31613, 0.60, -0.23, 0.78, 1.05, -1.47, 0.70
31614, 0.60, -0.24, 0.79, 0.84, -1.05, 0.35
31615, 0.60, -0.24, 0.79, 1.26, -0.35, 0.21
31616, 0.59, -0.24, 0.78, 0.49, -0.70, 0.21
31617, 0.60, -0.24, 0.78, 0.63, -1.75, 0.49
31618, 0.60, -0.24, 0.78, 0.21, -1.96, 0.63
31619, 0.60, -0.24, 0.78, 0.49, -2.24, 0.70
31620, 0.60, -0.24, 0.78, 0.07, -2.52, 0.98
31621, 0.59, -0.24, 0.78, 0.35, -3.57, 1.61
31622, 0.59, -0.24, 0.79, 0.42, -3.78, 2.24
31623, 0.60, -0.23, 0.78, -0.35, -3.15, 1.19
31624, 0.60, -0.24, 0.79, -0.07, -3.43, 0.63
31625, 0.60, -0.24, 0.78, -0.21, -2.38, 0.42
31626, 0.60, -0.24, 0.78, -0.21, -2.10, 0.28
31627, 0.60, -0.24, 0.78, -0.63, -2.17, 0.14
31628, 0.61, -0.23, 0.78, -0.49, -1.96, -0.14
31629, 0.61, -0.23, 0.78, -0.42, -2.10, 0.14
31630, 0.61, -0.24, 0.78, -0.42, -0.70, -0.14
31631, 0.60, -0.24, 0.78, 0.00, -0.91, -0.42
31632, 0.60, -0.23, 0.78, 0.35, -1.26, -0.07
31633, 0.61, -0.24, 0.78, -0.14, -1.33, 0.00
31634, 0.60, -0.24, 0.79, -0.35, -0.84, -0.14
31635, 0.60, -0.24, 0.78, -0.49, -0.63, -0.35
31636, 0.60, -0.24, 0.78, 0.00, -1.40, 0.00
31637, 0.60, -0.24, 0.78, 0.42, -1.40, 0.63
31638, 0.60, -0.23, 0.78, 0.14, -0.91, 0.63
31639, 0.61, -0.24, 0.78, -0.28, -0.77, -0.42
31640, 0.60, -0.24, 0.79, -0.21, -1.61, -0.56
31641, 0.60, -0.24, 0.78, -0.14, -0.91, 0.00
31642, 0.60, -0.24, 0.78, -0.28, -1.12, -0.35
31643, 0.60, -0.24, 0.78, -0.56, -0.98, -0.49
31644, 0.60, -0.24, 0.78, -0.07, -0.77, -0.35
31645, 0.60, -0.24, 0.78, -0.07, -1.47, -0.28
31646, 0.60, -0.24, 0.79, 0.21, -1.19, 0.07
31647, 0.60, -0.24, 0.78, 1.12, -1.96, 0.49
31648, 0.60, -0.24, 0.78, 0.56, -3.22, 0.56
31649, 0.60, -0.24, 0.78, 0.21, -4.13, 1.33
31650, 0.61, -0.24, 0.79, 0.98, -3.50, 1.33
31651, 0.61, -0.23, 0.78, 0.56, -1.75, 0.84
31652, 0.61, -0.24, 0.78, 0.49, -0.49, 0.49
31653, 0.61, -0.24, 0.78, 0.84, 0.21, 0.63
31654, 0.60, -0.24, 0.78, 0.63, -0.63, 1.05
31655, 0.60, -0.24, 0.78, 0.49, -1.75, 1.05
31656, 0.61, -0.23, 0.78, 0.00, -1.47, 0.63
31657, 0.61, -0.24, 0.78, 0.70, -0.49, 0.63
31658, 0.61, -0.24, 0.78, 0.70, -0.49, 0.84
31659, 0.60, -0.24, 0.78, 0.56, -0.70, 1.05
31660, 0.60, -0.24, 0.78, 1.12, -1.40, 0.70
31661, 0.60, -0.24, 0.78, 0.84, -1.47, 0.91
31662, 0.61, -0.24, 0.78, 0.77, -1.54, 1.19
31663, 0.60, -0.24, 0.78, 0.91, -1.26, 0.98
31664, 0.60, -0.24, 0.78, 0.98, -1.54, 0.91
31665, 0.61, -0.24, 0.78, 0.98, -1.61, 1.26
31666, 0.60, -0.24, 0.78, 1.26, -1.47, 1.05
31667, 0.60, -0.24, 0.78, 1.12, -1.68, 1.05
31668, 0.61, -0.24, 0.78, 0.77, -1.47, 1.19
31669, 0.60, -0.24, 0.78, 0.91, -1.40, 0.98
31670, 0.60, -0.24, 0.78, 0.84, -1.47, 0.63
31671, 0.60, -0.24, 0.78, 1.26, -1.82, 0.28
31672, 0.61, -0.24, 0.78, 0.98, -1.40, 0.14
31673, 0.60, -0.24, 0.78, 1.05, -1.54, 0.28
31674, 0.60, -0.24, 0.78, 0.21, -1.61, 0.28
31675, 0.61, -0.24, 0.78, 0.28, -1.96, 0.42
31676, 0.60, -0.24, 0.78, 0.21, -2.38, 0.49
31677, 0.61, -0.24, 0.78, 0.42, -2.87, 0.42
31678, 0.61, -0.24, 0.78, -0.14, -1.82, 0.49
31679, 0.61, -0.24, 0.78, -0.56, -1.75, 0.21
31680, 0.61, -0.24, 0.78, -0.28, -2.10, -0.14
31681, 0.61, -0.24, 0.78, -0.35, -2.17, -0.28
31682, 0.61, -0.24, 0.78, -0.28, -1.40, -0.28
31683, 0.61, -0.24, 0.78, -0.42, -1.19, -0.35
31684, 0.61, -0.24, 0.78, -0.42, -0.91, -0.56
31685, 0.61, -0.24, 0.78, -0.98, -1.05, -0.49
31686, 0.61, -0.24, 0.78, -0.63, -1.40, -0.28
31687, 0.61, -0.24, 0.78, -0.07, -0.98, -0.42
31688, 0.61, -0.24, 0.78, -0.56, -1.19, -0.63
31689, 0.61, -0.24, 0.78, -0.07, -1.26, -0.49
31690, 0.61, -0.24, 0.78, -0.56, -0.91, -0.70
31691, 0.61, -0.24, 0.78, -0.49, -0.77, -0.56
31692, 0.61, -0.24, 0.78, -0.35, -0.77, -0.49
31693, 0.61, -0.24, 0.78, 0.00, -1.26, -0.28
31694, 0.62, -0.23, 0.78, 0.70, 0.49, 0.56
31695, 0.61, -0.24, 0.78, 0.77, 0.07, 0.28
31696, 0.60, -0.24, 0.78, 0.98, 0.14, 0.63
31697, 0.61, -0.24, 0.78, 1.12, -0.28, 0.91
31698, 0.61, -0.24, 0.78, 0.77, -0.77, 0.63
31699, 0.61, -0.24, 0.78, 0.42, -0.56, 0.14
31700, 0.61, -0.24, 0.78, 0.91, -0.84, 0.14
31701, 0.61, -0.23, 0.78, 0.77, -0.63, 0.63
31702, 0.60, -0.24, 0.78, 0.84, -0.84, 0.77
31703, 0.61, -0.24, 0.78, 0.84, -1.19, 0.56
31704, 0.60, -0.24, 0.78, 0.35, -1.19, 0.70
31705, 0.61, -0.24, 0.78, 0.91, -1.40, 0.91
31706, 0.60, -0.24, 0.78, 0.63, -1.19, 0.77
31707, 0.60, -0.24, 0.78, 0.42, -1.33, 0.63
31708, 0.60, -0.24, 0.78, 0.63, -1.26, 0.70
31709, 0.60, -0.24, 0.78, 1.40, -1.12, 0.63
31710, 0.61, -0.24, 0.78, 0.91, -1.54, 0.56
31711, 0.61, -0.24, 0.78, 1.12, -0.63, 0.35
31712, 0.60, -0.24, 0.78, 1.05, -0.63, 0.28
31713, 0.60, -0.24, 0.78, 0.98, -1.61, 0.56
31714, 0.61, -0.24, 0.78, 0.63, -2.24, 0.77
31715, 0.61, -0.24, 0.78, -0.07, -2.52, 0.42
31716, 0.61, -0.24, 0.78, 0.00, -2.59, 0.21
31717, 0.61, -0.24, 0.78, -0.07, -1.96, 0.21
31718, 0.60, -0.24, 0.78, -0.14, -1.89, 0.21
31719, 0.61, -0.24, 0.78, -0.70, -2.24, -0.14
31720, 0.60, -0.24, 0.78, -0.63, -2.24, -0.28
31721, 0.61, -0.24, 0.78, -0.56, -2.17, -0.14
31722, 0.61, -0.24, 0.78, -0.49, -1.82, -0.21
31723, 0.61, -0.24, 0.78, -0.56, -1.75, -0.21
31724, 0.61, -0.24, 0.78, -1.12, -1.33, -0.35
31725, 0.61, -0.24, 0.78, -0.70, -1.19, -0.63
31726, 0.61, -0.24, 0.78, -0.70, -1.40, -0.49
31727, 0.61, -0.24, 0.78, -0.63, -0.63, -0.28
31728, 0.61, -0.24, 0.78, -0.14, -0.98, -0.28
31729, 0.61, -0.24, 0.78, -0.35, -0.77, -0.35
31730, 0.61, -0.24, 0.78, -0.21, -1.19, -0.21
31731, 0.61, -0.24, 0.78, -17.85, -0.63, -0.07
31732, 0.60, -0.24, 0.78, 0.14, -0.70, 0.00
31733, 0.61, -0.24, 0.78, -0.28, -0.98, -0.14
31734, 0.60, -0.24, 0.78, -0.07, -0.77, 0.00
31735, 0.61, -0.24, 0.78, -0.21, -0.91, 0.00
31736, 0.61, -0.24, 0.78, -0.21, -1.40, 0.07
31737, 0.61, -0.24, 0.78, 0.35, -1.33, 0.07
31738, 0.61, -0.24, 0.78, 0.42, -1.61, 0.42
31739, 0.61, -0.24, 0.78, 0.07, -1.82, 0.28
31740, 0.61, -0.24, 0.78, 0.35, -1.61, 0.35
31741, 0.61, -0.23, 0.78, 1.19, -0.28, 0.63
31742, 0.61, -0.24, 0.78, 0.84, -0.63, 0.56
31743, 0.61, -0.24, 0.78, 1.19, -0.42, 1.05
31744, 0.61, -0.24, 0.78, 0.63, -0.42, 0.91
31745, 0.61, -0.24, 0.78, 0.77, -0.84, 0.49
31746, 0.60, -0.23, 0.78, 0.77, -1.12, 0.35
31747, 0.61, -0.24, 0.78, 0.98, -1.61, 0.14
31748, 0.61, -0.24, 0.78, 0.91, -1.19, 0.21
31749, 0.61, -0.24, 0.77, 0.70, -1.05, 0.42
31750, 0.61, -0.24, 0.78, 0.84, -0.77, 0.70
31751, 0.61, -0.24, 0.78, 0.63, -0.77, 0.70
31752, 0.61, -0.24, 0.78, 0.56, -0.91, 0.35
31753, 0.61, -0.24, 0.78, 0.63, -0.98, 0.35
31754, 0.61, -0.24, 0.78, 0.98, -0.70, 0.42
31755, 0.60, -0.24, 0.78, 0.70, -0.70, 0.35
31756, 0.61, -0.24, 0.78, 0.56, -0.49, 0.28
31757, 0.60, -0.24, 0.78, 0.35, -0.70, 0.14
31758, 0.60, -0.24, 0.78, 0.84, 0.00, 0.21
31759, 0.60, -0.23, 0.78, 0.77, -0.56, 0.14
31760, 0.61, -0.24, 0.78, 0.35, -0.63, 0.35
31761, 0.60, -0.24, 0.78, 0.98, -0.21, 0.35
31762, 0.60, -0.24, 0.78, 0.56, -0.56, 0.14
31763, 0.60, -0.24, 0.78, 0.91, -1.61, 0.35
31764, 0.60, -0.24, 0.78, 0.35, -2.24, 0.56
31765, 0.61, -0.24, 0.78, 0.07, -1.96, 0.63
31766, 0.60, -0.24, 0.78, 0.21, -2.10, 0.63
31767, 0.60, -0.24, 0.78, 0.14, -2.03, 0.70
31768, 0.60, -0.24, 0.78, 0.21, -2.10, 0.63
31769, 0.60, -0.24, 0.78, -0.63, -2.24, 0.35
31770, 0.60, -0.24, 0.78, -0.42, -2.31, 0.07
31771, 0.61, -0.24, 0.78, -0.49, -2.52, 0.07
31772, 0.61, -0.24, 0.78, -0.35, -2.31, 0.00
31773, 0.61, -0.24, 0.78, -0.63, -1.89, -0.14
31774, 0.61, -0.24, 0.78, -0.49, -1.54, 0.00
31775, 0.61, -0.24, 0.78, -0.42, -1.47, -0.14
31776, 0.61, -0.24, 0.78, 0.00, -1.33, -0.07
31777, 0.61, -0.24, 0.78, -0.35, -1.12, 0.21
31778, 0.61, -0.24, 0.78, -0.14, -0.77, 0.14
31779, 0.60, -0.23, 0.78, 0.14, -1.26, 0.14
31780, 0.61, -0.24, 0.78, -0.42, -1.33, 0.00
31781, 0.61, -0.24, 0.78, 0.00, -1.05, -0.14
31782, 0.61, -0.24, 0.78, 0.14, -0.56, -0.21
31783, 0.61, -0.24, 0.78, -0.07, -0.63, -0.21
31784, 0.61, -0.24, 0.78, -0.35, -1.12, -0.14
31785, 0.61, -0.24, 0.78, -0.07, -0.98, -0.14
31786, 0.61, -0.24, 0.78, -0.28, -1.12, -0.21
31787, 0.61, -0.24, 0.78, -0.35, -1.47, -0.14
31788, 0.61, -0.24, 0.78, -0.07, -1.33, 0.07
31789, 0.61, -0.24, 0.78, -0.28, -1.26, -0.07
31790, 0.61, -0.24, 0.78, -0.07, -0.98, 0.00
31791, 0.61, -0.24, 0.78, 0.14, -0.63, 0.07
31792, 0.61, -0.24, 0.78, 0.00, -1.12, 0.07
31793, 0.61, -0.24, 0.78, -0.14, -0.98, -0.07
31794, 0.61, -0.24, 0.78, -0.21, -0.77, 0.00
31795, 0.61, -0.24, 0.78, 0.07, -0.98, -0.14
31796, 0.61, -0.24, 0.78, 0.00, -1.19, -0.21
31797, 0.61, -0.24, 0.78, 0.14, -1.26, 0.07
31798, 0.61, -0.24, 0.78, 0.14, -1.12, 0.14
31799, 0.61, -0.24, 0.78, 0.21, -1.47, 0.21
31800, 0.61, -0.24, 0.78, 0.07, -0.91, 0.14
31801, 0.61, -0.24, 0.78, 0.35, -0.98, 0.21
31802, 0.61, -0.24, 0.78, 0.00, -1.54, 0.07
31803, 0.61, -0.24, 0.78, 0.28, -1.68, 0.07
31804, 0.61, -0.24, 0.78, 0.84, -1.33, 0.28
31805, 0.61, -0.23, 0.78, 0.98, -0.14, 0.21
31806, 0.61, -0.23, 0.78, 0.91, 1.05, -0.91
31807, 0.60, -0.25, 0.78, 1.05, 0.35, -1.75
31808, 0.60, -0.24, 0.77, 0.91, -0.07, -1.26
31809, 0.60, -0.24, 0.78, 1.12, -1.96, -0.56
31810, 0.61, -0.24, 0.78, 0.84, -1.05, -0.35
31811, 0.61, -0.24, 0.78, 1.47, -0.84, 0.21
31812, 0.60, -0.23, 0.78, 1.33, -0.28, 0.28
31813, 0.60, -0.23, 0.78, 1.05, -0.42, 0.21
31814, 0.60, -0.23, 0.79, 0.28, -0.84, 0.00
31815, 0.60, -0.23, 0.78, 0.42, -0.91, 0.07
31816, 0.60, -0.23, 0.78, 0.35, -1.26, 0.07
31817, 0.61, -0.23, 0.78, 0.42, -0.98, 0.35
31818, 0.61, -0.23, 0.78, 0.28, -0.91, 0.35
31819, 0.61, -0.24, 0.78, 0.56, -0.98, 0.28
31820, 0.61, -0.23, 0.78, 0.77, -1.12, 0.70
31821, 0.61, -0.23, 0.78, 1.12, -1.47, 0.84
31822, 0.61, -0.23, 0.78, 1.26, -1.40, 1.05
31823, 0.61, -0.24, 0.78, 0.98, -0.77, 0.84
31824, 0.61, -0.23, 0.78, 0.98, -0.91, 0.70
31825, 0.60, -0.23, 0.78, 1.19, -0.84, 0.42
31826, 0.60, -0.23, 0.78, 1.26, -1.40, 0.49
31827, 0.60, -0.23, 0.78, 1.12, -1.12, 0.56
31828, 0.61, -0.24, 0.79, 1.12, -0.49, 0.35
31829, 0.60, -0.24, 0.78, 0.98, -1.05, 0.28
31830, 0.60, -0.24, 0.78, 0.84, -1.33, 0.42
31831, 0.61, -0.24, 0.78, 0.70, -1.75, 0.56
31832, 0.60, -0.24, 0.78, 0.42, -1.89, 0.84
31833, 0.61, -0.24, 0.78, -0.14, -2.52, 0.91
31834, 0.60, -0.24, 0.78, -0.21, -2.31, 0.77
31835, 0.60, -0.23, 0.78, 0.07, -2.31, 0.70
31836, 0.60, -0.23, 0.78, -0.21, -2.59, 0.56
31837, 0.61, -0.23, 0.78, -0.35, -2.52, 0.28
31838, 0.61, -0.23, 0.78, -0.21, -2.17, 0.00
31839, 0.61, -0.23, 0.78, -0.56, -1.33, -0.14
31840, 0.60, -0.24, 0.78, -0.42, -1.75, -0.07
31841, 0.61, -0.24, 0.78, -0.21, -2.17, 0.07
31842, 0.61, -0.24, 0.78, -0.28, -2.10, -0.21
31843, 0.61, -0.23, 0.78, -0.21, -1.05, 0.07
31844, 0.61, -0.24, 0.78, -0.21, -1.68, 0.28
31845, 0.61, -0.23, 0.78, -0.28, -1.19, 0.35
31846, 0.61, -0.23, 0.78, 0.00, -1.40, 0.21
31847, 0.61, -0.24, 0.78, -0.07, -1.82, 0.21
31848, 0.61, -0.23, 0.78, 0.00, -1.40, 0.35
31849, 0.61, -0.23, 0.78, -0.28, -1.40, 0.28
31850, 0.61, -0.24, 0.78, -0.21, -1.05, 0.21
31851, 0.60, -0.24, 0.78, 0.28, -1.82, 0.49
31852, 0.61, -0.24, 0.78, -0.14, -2.73, 0.84
31853, 0.61, -0.24, 0.78, 0.07, -3.15, 0.98
31854, 0.61, -0.24, 0.78, -0.63, -3.36, 1.12
31855, 0.61, -0.24, 0.78, -0.84, -2.38, 0.77
31856, 0.61, -0.24, 0.78, -0.42, -1.33, 0.84
31857, 0.61, -0.24, 0.78, -1.26, -0.84, 0.56
31858, 0.61, -0.23, 0.78, -1.96, -0.56, -0.21
31859, 0.61, -0.24, 0.78, -1.05, 0.07, -0.63
31860, 0.61, -0.24, 0.78, -1.75, 0.49, -0.77
31861, 0.61, -0.24, 0.78, -1.19, 0.56, -0.98
31862, 0.61, -0.24, 0.78, -0.91, -0.21, -0.84
31863, 0.61, -0.24, 0.78, -0.77, -0.84, -0.56
31864, 0.61, -0.24, 0.78, 0.07, -0.84, -0.21
31865, 0.60, -0.24, 0.78, 0.28, -1.12, 0.35
31866, 0.61, -0.24, 0.78, 0.56, -1.26, 0.28
31867, 0.60, -0.23, 0.78, 1.26, -0.28, 0.77
31868, 0.61, -0.23, 0.78, 0.49, -0.56, 0.49
31869, 0.60, -0.24, 0.78, 0.56, -0.49, 0.35
31870, 0.61, -0.24, 0.78, 0.42, -0.77, 0.14
31871, 0.61, -0.23, 0.78, 0.63, -0.84, 0.35
31872, 0.61, -0.24, 0.78, 0.98, -0.84, 0.35
31873, 0.61, -0.24, 0.78, 0.84, -0.77, 0.49
31874, 0.61, -0.24, 0.78, 0.70, -0.49, 0.56
31875, 0.61, -0.24, 0.78, 0.77, -1.05, 0.84
31876, 0.61, -0.24, 0.78, 0.84, -0.77, 1.19
31877, 0.60, -0.24, 0.78, 1.33, -1.05, 0.98
31878, 0.60, -0.24, 0.78, 1.33, -1.26, 0.70
31879, 0.60, -0.24, 0.78, 1.19, -1.68, 0.77
31880, 0.61, -0.24, 0.78, 0.70, -1.68, 0.77
31881, 0.61, -0.24, 0.78, 0.42, -0.84, 0.42
31882, 0.61, -0.24, 0.78, 0.70, -0.84, 0.21
31883, 0.61, -0.24, 0.78, 0.21, -0.77, 0.35
31884, 0.61, -0.24, 0.78, 0.70, -0.84, 0.35
31885, 0.61, -0.24, 0.78, 0.63, -1.05, 0.14
31886, 0.61, -0.24, 0.78, 0.77, -0.70, 0.21
31887, 0.60, -0.24, 0.78, 0.98, -0.77, 0.28
31888, 0.61, -0.24, 0.78, 0.84, -0.56, 0.21
31889, 0.60, -0.24, 0.78, 1.26, -0.28, 0.21
31890, 0.60, -0.24, 0.78, 0.56, -0.35, 0.14
31891, 0.60, -0.24, 0.78, 0.56, -1.12, 0.21
31892, 0.60, -0.24, 0.78, -0.21, -1.54, 0.28
31893, 0.61, -0.24, 0.78, 0.00, -1.82, 0.07
31894, 0.60, -0.24, 0.78, 0.00, -2.17, 0.28
31895, 0.60, -0.24, 0.78, 0.00, -2.45, 0.42
31896, 0.60, -0.24, 0.78, -0.56, -2.66, 0.21
31897, 0.61, -0.24, 0.78, -0.98, -2.24, 0.21
31898, 0.61, -0.24, 0.78, -0.35, -1.89, 0.14
31899, 0.60, -0.24, 0.78, -0.70, -1.89, 0.14
31900, 0.61, -0.24, 0.78, -0.63, -1.96, 0.00
31901, 0.61, -0.24, 0.78, -0.63, -1.96, -0.21
31902, 0.61, -0.24, 0.78, -0.28, -1.82, -0.07
31903, 0.61, -0.24, 0.78, -0.21, -1.54, 0.00
31904, 0.61, -0.24, 0.78, 0.21, -0.91, 0.00
31905, 0.61, -0.24, 0.78, -0.14, -1.26, 0.07
31906, 0.61, -0.24, 0.78, -0.63, -1.19, -0.14
31907, 0.61, -0.24, 0.78, 0.00, -1.12, -0.07
31908, 0.61, -0.24, 0.78, -0.35, -0.98, 0.00
31909, 0.60, -0.24, 0.78, -0.07, -0.77, -0.28
31910, 0.60, -0.24, 0.78, -0.49, -0.98, -0.35
31911, 0.61, -0.24, 0.78, -0.35, -1.19, -0.14
31912, 0.61, -0.24, 0.78, -0.56, -0.98, -0.21
31913, 0.61, -0.24, 0.78, -0.21, -0.63, 0.07
31914, 0.61, -0.24, 0.78, 0.00, -0.70, 0.07
31915, 0.61, -0.24, 0.78, -0.42, -0.91, 0.07
31916, 0.60, -0.24, 0.78, -0.07, -1.12, 0.14
31917, 0.61, -0.24, 0.78, 0.28, -1.26, 0.14
31918, 0.61, -0.24, 0.78, 0.14, -1.26, 0.07
31919, 0.61, -0.24, 0.78, -0.21, -1.26, 0.07
31920, 0.61, -0.24, 0.78, 0.07, -0.91, 0.07
31921, 0.61, -0.24, 0.78, -0.07, -1.05, 0.28
31922, 0.60, -0.24, 0.78, 0.14, -0.98, 0.14
31923, 0.61, -0.24, 0.78, -0.07, -1.26, -0.07
31924, 0.61, -0.24, 0.78, -0.21, -0.98, -0.07
31925, 0.61, -0.24, 0.78, -0.14, -0.91, -0.21
31926, 0.61, -0.24, 0.78, -0.21, -1.33, -0.28
31927, 0.61, -0.24, 0.78, 0.14, -1.26, 0.21
31928, 0.61, -0.24, 0.78, 0.63, -1.19, 0.21
31929, 0.61, -0.24, 0.78, 0.70, -0.42, 0.42
31930, 0.61, -0.24, 0.78, 0.56, -0.49, 0.56
31931, 0.61, -0.24, 0.78, 1.05, -0.35, 0.56
31932, 0.60, -0.24, 0.78, 0.70, -0.63, 0.49
31933, 0.60, -0.24, 0.79, 0.42, -0.63, 0.14
31934, 0.60, -0.24, 0.78, 0.84, -1.33, 0.14
31935, 0.61, -0.24, 0.78, 0.35, -0.70, -0.14
31936, 0.60, -0.24, 0.78, 0.28, -0.42, 0.21
31937, 0.60, -0.24, 0.78, 0.91, -0.49, 0.42
31938, 0.61, -0.24, 0.78, 0.77, -0.70, 0.35
31939, 0.61, -0.24, 0.78, 1.12, -0.98, 0.70
31940, 0.61, -0.24, 0.78, 0.84, -0.77, 0.56
31941, 0.60, -0.24, 0.78, 0.77, -0.35, 0.49
31942, 0.60, -0.24, 0.78, 0.84, -1.26, 0.70
31943, 0.61, -0.24, 0.78, 0.77, -1.33, 0.63
31944, 0.60, -0.24, 0.78, 0.56, -0.77, 0.49
31945, 0.61, -0.24, 0.78, 0.70, -0.91, 0.49
31946, 0.60, -0.24, 0.78, 0.84, -0.56, 0.63
31947, 0.60, -0.24, 0.78, 0.63, -0.70, 0.35
31948, 0.60, -0.24, 0.78, 0.42, -0.70, 0.14
31949, 0.60, -0.24, 0.78, 0.98, -0.56, 0.35
31950, 0.60, -0.24, 0.78, 0.70, -0.49, 0.28
31951, 0.60, -0.24, 0.78, 0.91, -0.49, 0.28
31952, 0.60, -0.24, 0.78, 1.05, -0.63, 0.49
31953, 0.60, -0.24, 0.78, 0.77, -0.56, 0.35
31954, 0.60, -0.24, 0.78, 0.84, -0.98, 0.14
31955, 0.60, -0.24, 0.78, 0.49, -1.33, 0.21
31956, 0.60, -0.24, 0.78, 0.28, -1.75, 0.42
31957, 0.60, -0.24, 0.78, -0.07, -2.10, 0.49
31958, 0.60, -0.24, 0.78, 0.07, -2.45, 0.49
31959, 0.60, -0.24, 0.78, 0.28, -2.24, 0.49
31960, 0.60, -0.24, 0.79, -17.71, -2.17, 0.42
31961, 0.61, -0.24, 0.78, -0.07, -1.26, -0.28
31962, 0.60, -0.24, 0.78, 0.21, -1.19, -0.56
31963, 0.60, -0.24, 0.78, 0.07, -1.68, -0.70
31964, 0.61, -0.24, 0.79, -0.35, -1.40, -1.33
31965, 0.61, -0.24, 0.78, -0.21, -0.91, -1.75
31966, 0.61, -0.24, 0.78, 0.21, -1.54, -1.33
31967, 0.60, -0.24, 0.78, 0.00, -1.33, -0.84
31968, 0.60, -0.23, 0.78, 0.42, -1.61, -0.42
31969, 0.61, -0.23, 0.78, 0.35, -1.61, -0.56
31970, 0.61, -0.23, 0.78, 0.07, -1.68, -0.70
31971, 0.60, -0.23, 0.79, 0.14, -1.68, -0.49
31972, 0.60, -0.24, 0.79, -0.07, -1.54, -0.28
31973, 0.60, -0.23, 0.78, -0.14, -1.54, -0.28
31974, 0.60, -0.23, 0.78, -0.21, -2.17, -0.21
31975, 0.61, -0.23, 0.79, -0.14, -2.10, 0.07
31976, 0.61, -0.23, 0.79, -0.28, -1.47, 0.28
31977, 0.61, -0.23, 0.78, -0.35, -0.91, -0.07
31978, 0.61, -0.24, 0.78, -0.49, -0.21, -0.70
31979, 0.61, -0.24, 0.78, -0.70, -0.14, -0.84
31980, 0.61, -0.24, 0.78, -0.63, 0.00, -0.84
31981, 0.60, -0.24, 0.78, 0.07, -0.56, -0.28
31982, 0.61, -0.24, 0.78, 0.14, -0.98, -0.28
31983, 0.60, -0.24, 0.78, 0.84, -0.77, 0.14
31984, 0.60, -0.24, 0.78, 0.49, -0.77, 0.28
31985, 0.60, -0.23, 0.78, 0.56, -0.70, 0.14
31986, 0.60, -0.23, 0.78, 0.14, -0.98, 0.00
31987, 0.61, -0.23, 0.79, -0.07, -0.35, -0.28
31988, 0.60, -0.24, 0.78, -0.49, 0.00, -0.49
31989, 0.60, -0.24, 0.78, -0.70, -0.14, -0.56
31990, 0.60, -0.24, 0.78, -0.49, -0.63, -0.28
31991, 0.61, -0.24, 0.78, -0.35, -0.91, 0.14
31992, 0.60, -0.24, 0.78, 0.14, -0.98, 0.49
31993, 0.61, -0.24, 0.78, -0.14, -0.91, 0.42
31994, 0.60, -0.23, 0.78, 1.19, -0.91, 0.42
31995, 0.60, -0.23, 0.78, 0.42, -1.47, 0.49
31996, 0.60, -0.24, 0.78, 0.28, -1.68, 0.63
31997, 0.60, -0.23, 0.78, 0.49, -2.24, 0.63
31998, 0.61, -0.23, 0.79, 0.56, -1.82, 0.56
31999, 0.61, -0.23, 0.78, 0.98, -1.05, 1.05
32000, 0.61, -0.24, 0.78, 0.49, -0.63, 0.70
32001, 0.60, -0.23, 0.78, 1.05, -0.70, 0.84
32002, 0.60, -0.23, 0.79, 0.63, -1.05, 0.56
32003, 0.60, -0.23, 0.78, 0.84, -1.12, 0.35
32004, 0.60, -0.24, 0.79, 0.70, -1.40, 0.63
32005, 0.60, -0.24, 0.78, 0.70, -1.33, 0.49
32006, 0.60, -0.23, 0.78, 0.84, -1.05, 0.28
32007, 0.61, -0.23, 0.78, 0.91, -1.19, 0.63
32008, 0.60, -0.24, 0.79, 0.84, -1.12, 0.91
32009, 0.60, -0.24, 0.79, 0.77, -0.91, 0.70
32010, 0.60, -0.23, 0.79, 0.91, -0.98, 0.56
32011, 0.60, -0.23, 0.79, 0.77, -1.26, 0.84
32012, 0.61, -0.23, 0.79, 0.98, -0.98, 0.70
32013, 0.60, -0.23, 0.79, 0.77, -0.98, 0.56
32014, 0.61, -0.23, 0.78, 0.84, -0.14, 0.56
32015, 0.60, -0.23, 0.79, 0.63, -0.70, 0.28
32016, 0.60, -0.23, 0.78, 0.35, -0.42, 0.21
32017, 0.60, -0.24, 0.79, 0.63, -0.56, 0.49
32018, 0.60, -0.23, 0.78, 0.63, -0.35, 0.21
32019, 0.60, -0.23, 0.78, 0.63, -0.49, 0.21
32020, 0.60, -0.23, 0.78, 0.56, -0.35, 0.35
32021, 0.60, -0.23, 0.79, 0.56, -0.07, 0.35
32022, 0.60, -0.23, 0.79, 1.05, 0.21, 0.14
32023, 0.60, -0.23, 0.79, 0.98, -0.63, 0.14
32024, 0.60, -0.23, 0.79, 0.98, -1.05, 0.28
32025, 0.60, -0.23, 0.79, 0.91, -0.63, 0.14
32026, 0.60, -0.23, 0.79, 0.70, -0.98, 0.14
32027, 0.60, -0.23, 0.79, 0.42, -1.26, 0.42
32028, 0.60, -0.24, 0.79, 0.35, -2.10, 0.63
32029, 0.60, -0.24, 0.79, -0.21, -2.38, 0.63
32030, 0.60, -0.24, 0.79, 0.42, -2.38, 0.84
32031, 0.60, -0.24, 0.79, 0.28, -2.38, 0.70
32032, 0.60, -0.24, 0.79, 0.28, -2.24, 0.70
32033, 0.60, -0.23, 0.79, -0.14, -2.52, 0.56
32034, 0.60, -0.23, 0.79, -0.42, -2.52, 0.42
32035, 0.60, -0.23, 0.79, -0.07, -2.52, 0.35
32036, 0.61, -0.23, 0.79, -0.21, -2.52, 0.28
32037, 0.60, -0.23, 0.79, -0.70, -1.96, 0.21
32038, 0.61, -0.24, 0.78, -0.35, -1.54, 0.35
32039, 0.60, -0.23, 0.78, 0.28, -1.82, 0.21
32040, 0.61, -0.23, 0.78, -0.28, -2.10, 0.28
32041, 0.61, -0.23, 0.78, 0.07, -1.40, 0.21
32042, 0.60, -0.23, 0.78, -0.07, -1.33, 0.21
32043, 0.60, -0.23, 0.78, -0.63, -1.19, 0.28
32044, 0.60, -0.23, 0.79, -0.14, -1.12, 0.07
32045, 0.60, -0.23, 0.79, -0.77, -0.98, -0.21
32046, 0.60, -0.23, 0.78, -0.35, -1.19, -0.21
32047, 0.60, -0.24, 0.78, -0.42, -1.19, -0.35
32048, 0.60, -0.24, 0.79, -0.35, -0.77, -0.42
32049, 0.60, -0.24, 0.79, -0.28, -0.70, -0.21
32050, 0.60, -0.24, 0.78, -0.35, -0.63, -0.28
32051, 0.61, -0.24, 0.79, -0.56, -0.70, -0.35
32052, 0.60, -0.23, 0.78, 0.07, -1.12, -0.14
32053, 0.60, -0.24, 0.79, -0.35, -0.70, 0.07
32054, 0.60, -0.24, 0.79, -0.07, -0.42, 0.00
32055, 0.60, -0.23, 0.78, 0.00, -0.63, -0.21
32056, 0.60, -0.23, 0.79, 0.00, -1.19, 0.00
32057, 0.60, -0.24, 0.79, 0.07, -0.91, 0.00
32058, 0.60, -0.24, 0.78, 0.00, -0.91, -0.07
32059, 0.60, -0.24, 0.79, 0.28, -1.33, -0.07
32060, 0.60, -0.24, 0.79, -0.07, -1.40, 0.00
32061, 0.60, -0.23, 0.79, 0.63, -0.28, 0.14
32062, 0.61, -0.23, 0.78, 0.56, -0.35, 0.42
32063, 0.60, -0.23, 0.78, 0.28, -0.35, 0.35
32064, 0.60, -0.24, 0.79, 0.84, -0.42, 0.49
32065, 0.60, -0.23, 0.79, 0.84, -0.42, 0.70
32066, 0.60, -0.23, 0.79, 0.84, -0.42, 0.42
32067, 0.60, -0.23, 0.78, 1.05, -0.56, 0.21
32068, 0.60, -0.23, 0.79, 0.63, -0.84, 0.14
32069, 0.60, -0.24, 0.79, 0.98, -1.33, 0.42
32070, 0.60, -0.24, 0.79, 0.98, -0.63, 0.56
32071, 0.60, -0.24, 0.79, 0.91, -0.35, 0.42
32072, 0.60, -0.24, 0.79, 0.56, -1.19, 0.42
32073, 0.60, -0.24, 0.79, 0.70, -1.05, 0.63
32074, 0.60, -0.23, 0.79, 0.70, -0.63, 0.63
32075, 0.60, -0.23, 0.79, 0.63, -1.05, 0.63
32076, 0.60, -0.24, 0.79, 0.63, -1.05, 0.49
32077, 0.60, -0.23, 0.79, 0.77, -0.56, 0.77
32078, 0.60, -0.23, 0.79, 0.63, -0.70, 0.56
32079, 0.60, -0.23, 0.79, 0.49, -0.98, 0.35
32080, 0.60, -0.23, 0.79, 0.63, -1.05, 0.35
32081, 0.60, -0.24, 0.79, 0.70, -0.56, 0.49
32082, 0.60, -0.23, 0.79, 0.70, -0.56, 0.35
32083, 0.60, -0.24, 0.79, 0.77, -0.56, 0.28
32084, 0.60, -0.23, 0.79, 1.19, -0.70, 0.21
32085, 0.60, -0.23, 0.79, 1.05, -1.33, 0.35
32086, 0.60, -0.24, 0.79, 0.91, -0.56, 0.42
32087, 0.60, -0.24, 0.79, 0.98, -0.91, 0.35
32088, 0.60, -0.23, 0.79, 0.91, -1.68, 0.42
32089, 0.60, -0.24, 0.79, 0.35, -2.59, 0.63
32090, 0.60, -0.24, 0.79, -0.07, -2.45, 0.49
32091, 0.60, -0.24, 0.79, 0.56, -2.24, 0.84
32092, 0.60, -0.23, 0.79, -0.07, -2.17, 0.56
32093, 0.60, -0.23, 0.79, -0.07, -2.10, 0.56
32094, 0.60, -0.23, 0.79, -0.07, -2.24, 0.49
32095, 0.60, -0.23, 0.79, -0.49, -2.10, 0.21
32096, 0.60, -0.23, 0.79, -0.70, -2.17, 0.00
32097, 0.60, -0.23, 0.79, 17.78, -2.38, 0.14
32098, 0.60, -0.23, 0.79, -0.42, -2.24, 0.07
32099, 0.60, -0.23, 0.79, -0.56, -1.61, 0.21
32100, 0.61, -0.23, 0.78, -0.21, -1.75, 0.28
32101, 0.61, -0.23, 0.78, -0.42, -1.89, 0.14
32102, 0.61, -0.23, 0.79, -0.14, -1.68, 0.21
32103, 0.60, -0.24, 0.79, -0.42, -1.26, 0.14
32104, 0.60, -0.23, 0.79, 0.07, -1.12, -0.07
32105, 0.60, -0.23, 0.79, -0.28, -1.82, -0.14
32106, 0.60, -0.24, 0.79, -0.14, -1.47, -0.07
32107, 0.60, -0.24, 0.78, -0.35, -1.12, -0.21
32108, 0.60, -0.23, 0.78, -0.56, -0.98, -0.07
32109, 0.60, -0.23, 0.78, -0.35, -0.70, 0.00
32110, 0.60, -0.24, 0.79, -0.42, -0.84, -0.07
32111, 0.60, -0.24, 0.79, -0.42, -0.98, -0.14
32112, 0.61, -0.23, 0.78, 0.07, -1.19, -0.07
32113, 0.60, -0.23, 0.79, -0.28, -0.98, -0.21
32114, 0.61, -0.24, 0.79, 0.00, -1.26, -0.14
32115, 0.60, -0.24, 0.79, -0.14, -0.98, 0.00
32116, 0.60, -0.24, 0.78, -0.49, -0.56, -17.92
32117, 0.60, -0.23, 0.78, -0.70, -0.70, -0.14
32118, 0.60, -0.23, 0.79, -0.35, -0.84, -0.14
32119, 0.60, -0.24, 0.79, -0.63, -0.49, 0.07
32120, 0.60, -0.24, 0.79, -0.28, -0.28, -0.07
32121, 0.60, -0.23, 0.79, -0.35, -0.70, -0.35
32122, 0.60, -0.24, 0.79, 0.00, -0.98, 0.07
32123, 0.60, -0.24, 0.79, -0.07, -0.91, 0.00
32124, 0.60, -0.24, 0.78, 0.21, -0.84, 0.14
32125, 0.60, -0.24, 0.79, 0.07, -1.19, 0.07
32126, 0.60, -0.24, 0.79, 0.00, -1.19, 0.28
32127, 0.60, -0.24, 0.79, 0.07, -1.33, 0.21
32128, 0.60, -0.24, 0.79, 0.07, -1.54, 0.00
32129, 0.60, -0.24, 0.78, 0.21, -1.75, 0.14
32130, 0.60, -0.23, 0.79, 0.14, -1.47, 0.14
32131, 0.61, -0.24, 0.79, 0.35, -1.05, 0.14
32132, 0.60, -0.24, 0.79, 0.49, -1.19, 0.35
32133, 0.60, -0.23, 0.79, 0.56, -0.91, 0.49
32134, 0.60, -0.23, 0.78, 0.77, -0.56, 0.70
32135, 0.60, -0.24, 0.79, 0.70, -0.56, 0.42
32136, 0.60, -0.24, 0.79, 0.77, -0.63, 0.77
32137, 0.60, -0.23, 0.79, 0.56, -0.49, 0.49
32138, 0.60, -0.23, 0.79, 0.70, -0.98, 0.42
32139, 0.60, -0.24, 0.79, 0.63, -1.12, 0.49
32140, 0.60, -0.24, 0.79, 1.19, -0.77, 0.35
32141, 0.60, -0.23, 0.79, 0.84, -1.12, 0.63
32142, 0.60, -0.23, 0.79, 0.77, -0.98, 0.77
32143, 0.60, -0.24, 0.79, 0.84, -0.91, 0.77
32144, 0.60, -0.23, 0.79, 0.98, -0.77, 0.63
32145, 0.60, -0.23, 0.79, 0.77, -0.98, 0.63
32146, 0.60, -0.23, 0.78, 0.77, -1.12, 0.56
32147, 0.60, -0.23, 0.79, 1.05, -1.19, 0.70
32148, 0.60, -0.23, 0.79, 0.77, -0.91, 0.49
32149, 0.60, -0.23, 0.79, 0.84, -0.91, 0.49
32150, 0.60, -0.24, 0.78, 0.49, -0.77, 0.35
32151, 0.60, -0.23, 0.79, 0.42, -0.84, 0.49
32152, 0.60, -0.23, 0.79, 0.42, -1.12, 0.56
32153, 0.60, -0.24, 0.79, 0.21, -0.63, 0.42
32154, 0.60, -0.23, 0.79, 0.70, -0.77, 0.35
32155, 0.60, -0.23, 0.79, 0.56, -1.19, 0.56
32156, 0.60, -0.23, 0.79, 0.70, -0.70, 0.35
32157, 0.60, -0.23, 0.79, 1.12, -0.49, 0.21
32158, 0.60, -0.23, 0.79, 0.91, -0.91, 0.35
32159, 0.60, -0.23, 0.79, 0.63, -1.05, 0.28
32160, 0.59, -0.24, 0.79, 0.77, -1.40, 0.35
32161, 0.60, -0.24, 0.79, 0.42, -1.96, 0.35
32162, 0.60, -0.24, 0.79, 0.07, -2.45, 0.42
32163, 0.60, -0.24, 0.79, 0.00, -2.87, 0.56
32164, 0.60, -0.24, 0.79, 0.14, -2.38, 0.70
32165, 0.60, -0.24, 0.79, 0.35, -2.24, 0.70
32166, 0.60, -0.23, 0.79, -0.21, -1.89, 0.63
32167, 0.60, -0.24, 0.79, 0.07, -2.10, 0.56
32168, 0.60, -0.23, 0.79, -0.28, -2.59, 0.49
32169, 0.60, -0.24, 0.79, -0.35, -2.17, 0.42
32170, 0.60, -0.24, 0.79, -0.28, -2.10, 0.42
32171, 0.60, -0.23, 0.79, -0.56, -2.03, 0.07
32172, 0.60, -0.23, 0.79, -0.49, -2.17, 0.21
32173, 0.61, -0.24, 0.79, -0.21, -2.03, 0.14
32174, 0.60, -0.24, 0.79, 0.00, -1.61, 0.07
32175, 0.60, -0.23, 0.79, -0.42, -1.47, 0.07
32176, 0.60, -0.24, 0.78, 0.07, -1.12, 0.14
32177, 0.60, -0.23, 0.79, -0.35, -0.77, -0.07
32178, 0.60, -0.23, 0.79, 0.00, -1.19, -0.28
32179, 0.60, -0.24, 0.79, -0.42, -1.40, -0.28
32180, 0.60, -0.24, 0.79, -0.56, -0.98, -0.42
32181, 0.60, -0.24, 0.79, -0.07, -1.12, -0.28
32182, 0.60, -0.24, 0.79, -0.35, -0.84, -0.28
32183, 0.60, -0.24, 0.78, -0.21, -0.77, -0.07
32184, 0.60, -0.23, 0.79, -0.21, -0.70, -0.28
32185, 0.60, -0.24, 0.79, -0.07, -1.12, -0.35
32186, 0.60, -0.24, 0.79, -0.49, -0.98, 0.07
32187, 0.60, -0.24, 0.78, -0.28, -0.98, -0.14
32188, 0.60, -0.23, 0.78, -0.28, -1.05, -0.21
32189, 0.60, -0.24, 0.79, -17.71, -0.84, -0.14
32190, 0.60, -0.24, 0.78, 0.07, -0.63, 0.00
32191, 0.60, -0.24, 0.79, -0.28, -0.28, -0.14
32192, 0.60, -0.24, 0.79, -0.14, -0.70, 0.07
32193, 0.60, -0.23, 0.78, -0.28, -0.70, 0.21
32194, 0.61, -0.24, 0.79, 0.49, -0.28, 0.42
32195, 0.60, -0.24, 0.79, 0.28, -0.91, 0.14
32196, 0.60, -0.23, 0.78, -0.21, -0.91, 0.07
32197, 0.60, -0.24, 0.79, 0.14, -1.26, 0.14
32198, 0.60, -0.24, 0.79, 0.49, -0.42, 0.07
32199, 0.60, -0.24, 0.79, 0.14, -0.42, 0.14
32200, 0.60, -0.24, 0.79, -0.07, -0.91, 0.00
32201, 0.60, -0.23, 0.79, 0.07, -1.26, 0.00
32202, 0.60, -0.24, 0.79, 0.28, -1.33, 0.21
32203, 0.60, -0.24, 0.79, -0.35, -1.05, 0.28
32204, 0.60, -0.24, 0.79, -0.28, -1.12, 0.07
32205, 0.60, -0.24, 0.78, 0.49, -2.03, 0.14
32206, 0.60, -0.23, 0.79, 0.35, -2.03, 0.49
32207, 0.61, -0.24, 0.79, 0.84, -0.98, 0.42
32208, 0.60, -0.24, 0.78, 0.42, -0.56, 0.56
32209, 0.60, -0.24, 0.79, 0.56, -0.28, 0.49
32210, 0.60, -0.24, 0.79, 0.63, -0.42, 0.77
32211, 0.60, -0.24, 0.79, 0.21, -0.84, 0.49
32212, 0.60, -0.23, 0.79, 0.56, -0.98, 0.07
32213, 0.60, -0.24, 0.79, 0.70, -0.98, 0.07
32214, 0.60, -0.24, 0.79, 0.70, -0.98, 0.28
32215, 0.60, -0.24, 0.79, 0.84, -1.05, 0.42
32216, 0.60, -0.24, 0.79, 0.49, -0.91, 0.56
32217, 0.60, -0.24, 0.79, 0.63, -0.56, 0.42
32218, 0.60, -0.24, 0.79, 0.84, -0.84, 0.56
32219, 0.60, -0.23, 0.79, 1.05, -1.54, 0.49
32220, 0.60, -0.24, 0.79, 0.28, -0.98, 0.49
32221, 0.60, -0.24, 0.79, 0.91, -0.70, 0.49
32222, 0.60, -0.23, 0.79, 0.77, -1.05, 0.42
32223, 0.60, -0.24, 0.79, 0.77, -1.05, 0.56
32224, 0.60, -0.23, 0.79, 0.49, -0.35, 0.35
32225, 0.60, -0.23, 0.79, 0.49, -0.42, 0.42
32226, 0.60, -0.24, 0.79, 0.42, -0.84, 0.42
32227, 0.60, -0.24, 0.79, 0.35, -0.42, 0.35
32228, 0.60, -0.23, 0.79, 0.70, -0.28, 0.21
32229, 0.60, -0.24, 0.79, 0.70, -0.63, -0.28
32230, 0.60, -0.24, 0.79, 0.91, -1.54, 0.07
32231, 0.60, -0.24, 0.79, 1.05, -1.40, 0.70
32232, 0.60, -0.23, 0.79, 0.98, -0.77, 0.70
32233, 0.60, -0.23, 0.79, 0.91, -0.49, 0.63
32234, 0.59, -0.23, 0.79, 1.47, -0.28, 0.77
32235, 0.60, -0.23, 0.79, 0.98, -1.19, 0.28
32236, 0.60, -0.24, 0.79, 0.77, -0.98, 0.14
32237, 0.59, -0.24, 0.79, 0.21, -1.19, 0.35
32238, 0.60, -0.24, 0.79, 0.00, -1.89, 0.49
32239, 0.60, -0.24, 0.79, 0.14, -2.52, 0.42
32240, 0.60, -0.24, 0.79, 0.21, -2.31, 0.56
32241, 0.60, -0.24, 0.79, 0.63, -2.10, 0.84
32242, 0.60, -0.23, 0.79, 0.07, -2.52, 0.70
32243, 0.60, -0.23, 0.79, 0.21, -2.10, 0.49
32244, 0.60, -0.24, 0.79, 0.07, -2.03, 0.35
32245, 0.60, -0.24, 0.79, -0.63, -1.96, 0.07
32246, 0.60, -0.23, 0.79, -0.77, -2.10, 0.00
32247, 0.60, -0.23, 0.79, 0.07, -2.17, -0.07
32248, 0.60, -0.24, 0.79, -0.07, -1.89, 0.00
32249, 0.60, -0.23, 0.79, -0.28, -1.33, 0.07
32250, 0.60, -0.23, 0.79, -0.21, -1.40, -0.07
32251, 0.60, -0.23, 0.79, -0.21, -1.61, 0.00
32252, 0.60, -0.23, 0.79, -0.07, -1.61, 0.07
32253, 0.60, -0.23, 0.79, -0.07, -1.40, 0.14
32254, 0.60, -0.24, 0.79, -0.21, -1.05, -0.07
32255, 0.60, -0.23, 0.79, -0.14, -0.98, -0.28
32256, 0.60, -0.23, 0.79, -0.35, -1.47, -0.35
32257, 0.60, -0.24, 0.79, -0.28, -1.26, -0.56
32258, 0.60, -0.24, 0.79, -0.28, -0.77, -0.42
32259, 0.60, -0.24, 0.79, -0.35, -0.63, -0.42
32260, 0.60, -0.24, 0.79, -0.42, -0.98, -0.14
32261, 0.60, -0.24, 0.79, -0.14, -0.77, -0.14
32262, 0.60, -0.24, 0.79, -0.14, -0.98, -0.35
32263, 0.60, -0.23, 0.79, -0.77, -1.05, -0.28
32264, 0.60, -0.24, 0.79, -0.49, -1.54, -0.14
32265, 0.60, -0.24, 0.79, -0.28, -1.12, 0.00
32266, 0.60, -0.23, 0.79, -0.42, -0.98, 0.00
32267, 0.60, -0.24, 0.79, -0.28, -0.63, -0.07
32268, 0.60, -0.24, 0.79, -0.28, -0.91, -0.07
32269, 0.60, -0.24, 0.79, -0.28, -0.84, -0.28
32270, 0.60, -0.24, 0.79, -0.21, -0.84, 0.28
32271, 0.60, -0.24, 0.79, 0.00, -1.26, 0.21
32272, 0.60, -0.24, 0.79, -0.28, -2.10, 0.28
32273, 0.60, -0.24, 0.79, 0.56, -2.66, 0.14
32274, 0.60, -0.24, 0.79, 0.21, -2.80, 0.21
32275, 0.61, -0.23, 0.79, -0.70, -1.89, 0.07
32276, 0.60, -0.23, 0.79, -0.35, -1.26, 0.00
32277, 0.60, -0.24, 0.79, 0.07, -1.26, 0.49
32278, 0.60, -0.24, 0.79, 1.05, -0.56, 0.91
32279, 0.60, -0.24, 0.79, 1.19, -0.84, 0.84
32280, 0.60, -0.23, 0.79, 0.84, -1.40, 0.98
32281, 0.60, -0.23, 0.79, -0.14, -1.40, 0.63
32282, 0.60, -0.23, 0.79, -0.14, -0.14, 0.56
32283, 0.60, -0.24, 0.79, 0.21, 0.07, 0.49
32284, 0.60, -0.24, 0.79, 0.28, -0.21, 0.35
32285, 0.60, -0.24, 0.79, 0.35, -0.21, 0.35
32286, 0.60, -0.24, 0.79, 0.56, -0.35, 0.63
32287, 0.60, -0.24, 0.79, 0.28, -0.56, 1.12
32288, 0.60, -0.24, 0.79, 0.35, -0.07, 0.77
32289, 0.60, -0.24, 0.79, 0.14, -0.56, 0.84
32290, 0.60, -0.24, 0.79, 0.07, -0.63, 0.70
32291, 0.60, -0.24, 0.79, 0.56, -0.56, 0.77
32292, 0.60, -0.23, 0.79, 0.70, -0.28, 0.35
32293, 0.60, -0.24, 0.79, 0.42, 0.00, -0.07
32294, 0.60, -0.24, 0.79, 0.42, -0.14, -0.28
32295, 0.60, -0.24, 0.79, 0.49, 0.84, -0.28
32296, 0.60, -0.24, 0.79, 0.56, 0.07, -0.49
32297, 0.59, -0.24, 0.79, 0.98, 0.28, -0.21
32298, 0.60, -0.24, 0.79, 1.54, -0.35, -0.14
32299, 0.59, -0.24, 0.79, 1.89, -0.21, -0.21
32300, 0.59, -0.24, 0.79, 1.82, -0.63, -0.07
32301, 0.59, -0.24, 0.79, 1.19, -0.70, -0.21
32302, 0.59, -0.23, 0.79, 0.77, -1.26, -0.21
32303, 0.60, -0.24, 0.79, 0.07, -1.61, -0.14
32304, 0.60, -0.24, 0.79, -0.21, -1.40, 0.00
32305, 0.60, -0.24, 0.79, -0.21, -1.40, 0.00
32306, 0.59, -0.23, 0.79, -0.14, -2.03, -0.07
32307, 0.59, -0.24, 0.79, -0.14, -2.10, -0.07
32308, 0.60, -0.24, 0.80, -0.35, -2.10, -0.14
32309, 0.59, -0.23, 0.79, -0.35, -1.96, -0.28
32310, 0.60, -0.23, 0.79, -0.49, -1.33, -0.21
32311, 0.60, -0.23, 0.79, -0.14, -1.19, -0.21
32312, 0.60, -0.23, 0.79, -0.77, -1.26, -0.35
32313, 0.60, -0.23, 0.79, -0.35, -1.47, -0.49
32314, 0.60, -0.23, 0.79, -0.49, -1.26, -0.28
32315, 0.60, -0.24, 0.80, -0.14, -0.98, -0.21
32316, 0.59, -0.24, 0.79, -0.35, -1.40, -0.28
32317, 0.60, -0.24, 0.79, -0.14, -0.91, 0.00
32318, 0.60, -0.24, 0.79, -0.28, -1.12, -0.21
32319, 0.60, -0.23, 0.80, -0.28, -1.05, -0.35
32320, 0.60, -0.24, 0.79, -0.35, -0.98, 0.07
32321, 0.60, -0.24, 0.79, -0.07, -0.91, -0.07
32322, 0.60, -0.23, 0.79, -0.21, -0.91, -0.28
32323, 0.59, -0.24, 0.79, -0.21, -1.19, -0.07
32324, 0.60, -0.24, 0.79, 0.28, -0.35, -0.21
32325, 0.60, -0.23, 0.80, 0.56, 0.63, -0.35
32326, 0.61, -0.23, 0.79, -0.42, 1.82, -2.52
32327, 0.59, -0.25, 0.78, 0.14, -0.56, -2.38
32328, 0.59, -0.24, 0.79, 0.07, -2.17, -1.05
32329, 0.59, -0.24, 0.79, 0.56, -2.45, 0.42
32330, 0.59, -0.23, 0.79, 0.14, -3.15, 0.98
32331, 0.60, -0.23, 0.80, 0.91, -1.40, 0.77
32332, 0.60, -0.23, 0.79, -0.42, 0.35, -0.35
32333, 0.59, -0.23, 0.79, -0.98, 0.28, -1.26
32334, 0.60, -0.23, 0.79, -1.33, -0.49, -1.19
32335, 0.59, -0.23, 0.79, -1.40, -0.70, -1.05
32336, 0.60, -0.23, 0.79, -1.12, -0.49, -0.77
32337, 0.60, -0.24, 0.79, -0.70, -0.49, -0.70
32338, 0.59, -0.24, 0.79, -0.42, -0.35, -0.28
32339, 0.60, -0.23, 0.79, -0.28, -0.63, -0.07
32340, 0.60, -0.24, 0.79, -0.28, -0.63, 0.28
32341, 0.60, -0.23, 0.80, -0.35, -0.49, 0.21
32342, 0.59, -0.23, 0.80, 0.35, -0.28, 0.42
32343, 0.60, -0.24, 0.79, 0.28, -0.21, 0.77
32344, 0.59, -0.23, 0.79, 0.77, -0.07, 0.98
32345, 0.59, -0.24, 0.80, 0.70, -0.63, 0.70
32346, 0.59, -0.23, 0.80, 0.56, -0.91, 0.63
32347, 0.59, -0.23, 0.80, 0.98, -1.40, 0.49
32348, 0.59, -0.24, 0.80, 0.91, -1.33, 0.70
32349, 0.59, -0.24, 0.80, 1.33, -1.54, 1.12
32350, 0.59, -0.24, 0.79, 0.91, -1.54, 0.98
32351, 0.59, -0.24, 0.79, 0.91, -1.54, 1.12
32352, 0.59, -0.24, 0.80, 1.19, -1.54, 1.40
32353, 0.60, -0.24, 0.79, 0.91, -1.54, 1.47
32354, 0.59, -0.24, 0.79, 0.84, -1.61, 1.12
32355, 0.59, -0.23, 0.79, 1.12, -1.75, 0.98
32356, 0.59, -0.24, 0.80, 1.40, -1.47, 1.05
32357, 0.59, -0.24, 0.79, 0.91, -1.33, 0.84
32358, 0.59, -0.23, 0.79, 0.56, -1.05, 0.84
32359, 0.59, -0.23, 0.79, 0.28, -0.84, 0.77
32360, 0.60, -0.23, 0.80, 0.70, -0.35, 0.56
32361, 0.59, -0.24, 0.79, 0.70, -0.56, 0.63
32362, 0.59, -0.23, 0.80, 0.49, -0.70, 0.49
32363, 0.59, -0.23, 0.79, 0.91, -0.91, 0.28
32364, 0.59, -0.23, 0.80, 0.70, -0.91, 0.14
32365, 0.59, -0.23, 0.80, 1.33, -0.77, 0.21
32366, 0.59, -0.24, 0.79, 0.91, -0.63, 0.07
32367, 0.59, -0.24, 0.79, 0.91, -0.49, 0.00
32368, 0.59, -0.24, 0.80, 0.70, -1.33, 0.00
32369, 0.59, -0.24, 0.80, 0.70, -1.40, 0.42
32370, 0.59, -0.24, 0.79, 0.07, -1.89, 0.56
32371, 0.59, -0.24, 0.80, 0.14, -2.31, 0.35
32372, 0.59, -0.24, 0.79, -0.07, -2.52, 0.56
32373, 0.59, -0.24, 0.79, -0.56, -2.59, 0.42
32374, 0.59, -0.23, 0.80, -0.42, -2.59, 0.42
32375, 0.59, -0.23, 0.79, -0.63, -2.31, 0.14
32376, 0.59, -0.23, 0.79, -0.56, -2.10, 0.21
32377, 0.59, -0.23, 0.80, -0.63, -1.96, 0.14
32378, 0.59, -0.24, 0.79, -0.49, -1.82, -0.21
32379, 0.60, -0.23, 0.79, -0.56, -1.96, -0.07
32380, 0.60, -0.24, 0.79, -0.07, -1.54, -0.14
32381, 0.60, -0.24, 0.79, 0.07, -1.61, -0.07
32382, 0.59, -0.24, 0.79, 0.00, -1.40, 0.14
32383, 0.59, -0.24, 0.79, -0.14, -1.33, -0.07
32384, 0.60, -0.23, 0.79, -0.35, -1.47, -0.07
32385, 0.60, -0.24, 0.79, -0.35, -0.98, 0.21
32386, 0.59, -0.24, 0.79, -0.28, -0.77, 0.07
32387, 0.59, -0.23, 0.79, -0.21, -0.91, -0.14
32388, 0.60, -0.23, 0.79, -0.07, -1.40, -0.07
32389, 0.60, -0.24, 0.79, 0.00, -0.91, -0.14
32390, 0.59, -0.24, 0.79, -0.28, -0.63, -0.14
32391, 0.59, -0.24, 0.79, -0.70, -0.70, 0.00
32392, 0.60, -0.24, 0.79, 0.21, -0.77, 0.21
32393, 0.59, -0.24, 0.79, -0.28, -0.77, 0.14
32394, 0.59, -0.24, 0.79, 0.00, -0.98, 0.21
32395, 0.59, -0.23, 0.79, 0.00, -1.05, 0.21
32396, 0.59, -0.24, 0.80, 0.07, -0.91, 0.00
32397, 0.59, -0.24, 0.79, 0.07, -0.98, 0.21
32398, 0.59, -0.24, 0.79, -0.21, -0.91, 0.07
32399, 0.59, -0.24, 0.79, -0.56, -0.91, 0.07
32400, 0.59, -0.24, 0.79, -0.77, -0.77, 0.07
32401, 0.59, -0.24, 0.79, -0.63, -0.84, 0.00
32402, 0.59, -0.24, 0.79, -0.56, -1.40, 0.42
32403, 0.59, -0.24, 0.79, 0.07, -1.68, 0.63
32404, 0.59, -0.23, 0.79, 0.14, -1.96, 0.70
32405, 0.60, -0.24, 0.79, 0.21, -1.75, 0.49
32406, 0.60, -0.24, 0.79, 0.00, -1.82, 0.35
32407, 0.60, -0.24, 0.79, 0.42, -1.40, 0.42
32408, 0.59, -0.24, 0.79, 0.28, -1.96, 0.56
32409, 0.60, -0.24, 0.79, -0.14, -1.61, 0.42
32410, 0.60, -0.24, 0.79, 0.70, -1.33, 0.91
32411, 0.60, -0.24, 0.79, -0.14, -1.12, 0.84
32412, 0.60, -0.23, 0.79, -0.14, -0.28, 0.77
32413, 0.59, -0.24, 0.80, 0.21, -0.49, 1.05
32414, 0.60, -0.23, 0.79, 0.14, 0.14, 0.77
32415, 0.59, -0.24, 0.79, 0.14, -0.28, 0.70
32416, 0.59, -0.24, 0.79, 0.00, -0.56, 0.42
32417, 0.59, -0.24, 0.79, -0.21, -0.63, 0.56
32418, 0.59, -0.24, 0.79, -0.28, -0.56, 0.63
32419, 0.59, -0.25, 0.79, 0.07, 0.00, 0.42
32420, 0.59, -0.24, 0.79, -0.07, -0.21, 0.28
32421, 0.59, -0.24, 0.79, -0.35, -0.56, 0.42
32422, 0.59, -0.24, 0.79, 0.42, -0.77, 0.63
32423, 0.59, -0.24, 0.79, 0.98, -0.42, 0.56
32424, 0.59, -0.24, 0.79, 0.42, -0.70, 0.56
32425, 0.59, -0.24, 0.79, 0.77, -0.70, 0.70
32426, 0.59, -0.24, 0.80, 0.56, -0.21, 0.56
32427, 0.59, -0.24, 0.80, 0.49, 0.07, 0.35
32428, 0.59, -0.24, 0.79, 0.00, -0.70, 0.35
32429, 0.59, -0.24, 0.80, 0.07, -0.28, 0.42
32430, 0.59, -0.24, 0.80, 0.35, -0.42, 0.42
32431, 0.59, -0.24, 0.79, 0.56, -0.21, 0.56
32432, 0.59, -0.24, 0.80, 0.63, 17.78, 0.42
32433, 0.58, -0.24, 0.79, 0.28, -0.21, 0.35
32434, 0.59, -0.24, 0.80, 0.84, -0.56, 0.49
32435, 0.59, -0.24, 0.80, 0.84, -0.56, 0.49
32436, 0.59, -0.24, 0.80, 1.40, -0.14, 0.35
32437, 0.58, -0.24, 0.79, 1.12, -0.84, 0.28
32438, 0.59, -0.24, 0.80, 0.56, -1.40, 0.42
32439, 0.59, -0.24, 0.80, 0.21, -1.54, 0.28
32440, 0.59, -0.24, 0.79, -0.21, -1.68, 0.28
32441, 0.59, -0.24, 0.79, -0.14, -1.82, 0.35
32442, 0.58, -0.24, 0.79, 0.14, -1.61, 0.56
32443, 0.58, -0.24, 0.79, -0.07, -2.31, 0.42
32444, 0.59, -0.24, 0.80, -0.56, -3.08, 0.14
32445, 0.59, -0.24, 0.80, -0.28, -2.24, 0.07
32446, 0.59, -0.24, 0.80, -0.35, -1.89, 17.85
32447, 0.59, -0.24, 0.80, -0.42, -1.47, -0.21
32448, 0.59, -0.24, 0.80, -0.42, -1.12, -0.63
32449, 0.59, -0.24, 0.79, -0.21, -0.98, -1.26
32450, 0.59, -0.24, 0.79, 0.07, -1.33, -1.05
32451, 0.59, -0.24, 0.80, 0.00, -0.91, -1.05
32452, 0.59, -0.24, 0.79, 0.84, -1.12, -0.77
32453, 0.59, -0.24, 0.79, 0.98, -1.68, -0.70
32454, 0.59, -0.24, 0.80, 0.77, -2.17, -0.49
32455, 0.59, -0.24, 0.80, 0.91, -2.03, -0.28
32456, 0.59, -0.24, 0.79, 0.56, -1.82, -0.28
32457, 0.59, -0.24, 0.80, 0.42, -1.61, -0.28
32458, 0.59, -0.24, 0.80, 0.28, -1.26, -0.21
32459, 0.59, -0.23, 0.79, 0.56, -1.47, -0.35
32460, 0.59, -0.24, 0.79, -0.21, -1.33, -0.56
32461, 0.60, -0.24, 0.79, 0.14, -1.19, -0.70
32462, 0.59, -0.24, 0.79, -0.14, -1.47, -0.35
32463, 0.59, -0.24, 0.80, -0.21, -1.47, -0.21
32464, 0.59, -0.24, 0.80, -0.70, -0.91, 17.85
32465, 0.59, -0.24, 0.79, -0.84, -0.70, -0.14
32466, 0.59, -0.23, 0.79, -0.84, -0.56, -0.14
32467, 0.59, -0.24, 0.80, -0.91, -0.49, -0.07
32468, 0.59, -0.24, 0.80, -0.91, -0.35, 0.21
32469, 0.59, -0.24, 0.79, -0.49, -0.28, 0.00
32470, 0.59, -0.24, 0.79, -0.28, -0.77, -0.21
32471, 0.59, -0.24, 0.79, -0.14, -1.33, 0.28
32472, 0.59, -0.24, 0.80, 0.14, -1.26, 0.49
32473, 0.59, -0.24, 0.80, -0.21, -1.19, 0.49
32474, 0.59, -0.24, 0.79, -0.14, -1.12, 0.42
32475, 0.59, -0.24, 0.80, 0.14, -1.26, 0.63
32476, 0.59, -0.24, 0.80, 0.35, -1.54, 0.56
32477, 0.59, -0.24, 0.80, 0.35, -1.75, 0.42
32478, 0.59, -0.24, 0.80, 0.28, -1.54, 0.77
32479, 0.59, -0.24, 0.80, 0.84, -0.84, 0.98
32480, 0.59, -0.24, 0.79, 0.91, -0.84, 0.84
32481, 0.59, -0.24, 0.79, 1.05, -0.56, 0.84
32482, 0.59, -0.24, 0.80, 0.49, -1.26, 0.77
32483, 0.59, -0.24, 0.79, 0.56, -1.26, 0.77
32484, 0.59, -0.24, 0.80, 0.63, -1.47, 0.77
32485, 0.59, -0.24, 0.80, 0.49, -1.26, 0.77
32486, 0.59, -0.24, 0.79, 0.49, -1.40, 0.77
32487, 0.59, -0.24, 0.79, 0.77, -1.75, 0.77
32488, 0.59, -0.24, 0.79, 0.77, -1.54, 0.84
32489, 0.59, -0.24, 0.79, -0.07, -1.33, 0.77
32490, 0.59, -0.24, 0.79, 0.70, -1.12, 0.77
32491, 0.59, -0.24, 0.79, 0.56, -1.19, 0.84
32492, 0.59, -0.24, 0.80, 0.28, -1.26, 0.70
32493, 0.59, -0.24, 0.79, 0.49, -1.68, 0.49
32494, 0.59, -0.24, 0.79, 0.21, -1.33, 0.56
32495, 0.59, -0.24, 0.80, 0.42, -1.26, 0.49
32496, 0.59, -0.24, 0.79, 0.42, -0.77, 0.35
32497, 0.59, -0.24, 0.79, 0.42, -0.91, 0.28
32498, 0.59, -0.24, 0.79, 0.35, -0.77, 0.35
32499, 0.59, -0.24, 0.79, 0.84, -0.70, 0.28
32500, 0.59, -0.24, 0.80, 0.98, -1.33, 0.35
32501, 0.59, -0.24, 0.80, 0.21, -0.91, 0.70
32502, 0.59, -0.24, 0.79, 0.42, -0.91, 0.98
32503, 0.59, -0.24, 0.79, 0.70, -0.84, 0.70
32504, 0.59, -0.24, 0.80, 1.33, -1.05, 0.63
32505, 0.59, -0.24, 0.79, 0.49, -1.40, 0.56
32506, 0.59, -0.24, 0.79, 0.35, -1.19, 0.42
32507, 0.59, -0.24, 0.79, 0.35, -1.68, 0.49
32508, 0.59, -0.24, 0.79, 0.35, -1.54, 0.42
32509, 0.59, -0.24, 0.79, 0.00, -1.75, 0.70
32510, 0.59, -0.24, 0.80, -0.14, -1.96, 0.28
32511, 0.59, -0.24, 0.80, -0.21, -1.96, 0.35
32512, 0.59, -0.24, 0.79, -0.07, -1.61, 0.07
32513, 0.59, -0.24, 0.80, 0.35, -1.89, 0.00
32514, 0.59, -0.24, 0.80, -0.07, -1.68, 0.00
32515, 0.59, -0.24, 0.79, 0.28, -1.61, 0.14
32516, 0.59, -0.24, 0.79, 0.07, -1.89, 0.00
32517, 0.59, -0.24, 0.79, 0.21, -1.33, 0.14
32518, 0.59, -0.24, 0.79, -0.28, -1.19, 0.14
32519, 0.59, -0.24, 0.80, -0.21, -0.98, 0.00
32520, 0.59, -0.24, 0.79, 0.35, -1.61, 0.00
32521, 0.59, -0.24, 0.79, 0.35, -1.61, 0.14
32522, 0.59, -0.24, 0.80, 0.00, -1.26, -0.21
32523, 0.59, -0.24, 0.79, -0.42, -1.26, -0.21
32524, 0.59, -0.24, 0.79, -0.49, -0.56, -0.28
32525, 0.59, -0.24, 0.79, -0.35, -0.77, -0.14
32526, 0.59, -0.24, 0.79, -0.21, -0.91, -0.28
32527, 0.59, -0.24, 0.79, -0.49, -1.19, -0.42
32528, 0.59, -0.24, 0.79, -17.92, -0.98, -0.14
32529, 0.59, -0.24, 0.80, 0.00, -1.12, 0.07
32530, 0.59, -0.24, 0.79, -0.49, -1.47, 0.14
32531, 0.59, -0.24, 0.79, -0.21, -1.05, 0.00
32532, 0.59, -0.24, 0.79, -0.42, -0.49, -0.35
32533, 0.59, -0.24, 0.80, -0.56, -0.63, -0.49
32534, 0.59, -0.24, 0.80, -0.56, -0.56, -0.28
32535, 0.59, -0.25, 0.79, 0.00, -0.42, -0.28
32536, 0.59, -0.24, 0.79, -0.49, -0.84, -0.35
32537, 0.59, -0.24, 0.79, -0.14, -1.19, -0.07
32538, 0.59, -0.24, 0.79, 0.07, -0.98, 0.07
32539, 0.59, -0.24, 0.79, -0.35, -0.63, 0.00
32540, 0.59, -0.24, 0.79, -0.07, -0.98, -0.07
32541, 0.59, -0.24, 0.80, 0.00, -0.56, 0.07
32542, 0.59, -0.24, 0.80, 0.14, -0.84, 0.14
32543, 0.59, -0.24, 0.80, 0.00, -1.33, 0.07
32544, 0.59, -0.24, 0.80, 0.70, -0.91, 0.21
32545, 0.59, -0.24, 0.80, 0.70, -0.77, 0.63
32546, 0.59, -0.24, 0.79, 0.56, -0.56, 0.42
32547, 0.59, -0.24, 0.79, 0.77, -0.49, 0.63
32548, 0.59, -0.24, 0.80, 0.49, -0.98, 0.70
32549, 0.59, -0.24, 0.80, 1.12, -1.33, 0.49
32550, 0.59, -0.24, 0.80, 0.77, -1.33, 0.28
32551, 0.59, -0.24, 0.80, 0.56, -1.26, 0.56
32552, 0.59, -0.24, 0.79, 0.21, -1.33, 0.77
32553, 0.59, -0.24, 0.79, 0.49, -1.19, 0.77
32554, 0.59, -0.24, 0.80, 0.21, -1.40, 0.70
32555, 0.59, -0.24, 0.80, 0.84, -1.54, 0.70
32556, 0.59, -0.24, 0.79, 0.84, -1.40, 0.70
32557, 0.59, -0.24, 0.80, 0.49, -1.61, 0.84
32558, 0.59, -0.24, 0.80, 0.49, -1.61, 0.77
32559, 0.59, -0.24, 0.79, 0.42, -1.75, 0.70
32560, 0.59, -0.24, 0.79, 0.35, -1.68, 0.42
32561, 0.59, -0.24, 0.79, 0.49, -1.61, 0.35
32562, 0.59, -0.24, 0.80, 0.63, -0.98, 0.70
32563, 0.59, -0.24, 0.79, 0.56, -1.33, 0.56
32564, 0.59, -0.24, 0.79, 1.12, -1.12, 0.42
32565, 0.59, -0.24, 0.79, 1.05, -0.77, 0.56
32566, 0.59, -0.24, 0.79, 0.70, -0.84, 0.35
32567, 0.59, -0.24, 0.79, 0.63, -1.12, 0.21
32568, 0.59, -0.24, 0.79, 0.35, -0.56, 0.14
32569, 0.59, -0.24, 0.79, 0.91, -0.49, 0.00
32570, 0.59, -0.24, 0.79, 0.63, -0.84, 0.21
32571, 0.59, -0.24, 0.79, 1.05, -0.63, 0.07
32572, 0.59, -0.24, 0.80, 1.19, -1.12, 0.21
32573, 0.59, -0.24, 0.79, 0.70, -1.40, 0.35
32574, 0.59, -0.25, 0.79, 0.91, -2.31, 0.49
32575, 0.59, -0.26, 0.80, 1.61, -3.99, 1.26
32576, 0.59, -0.25, 0.79, 2.87, -5.39, 1.61
32577, 0.58, -0.26, 0.80, 3.71, -5.95, 1.19
32578, 0.59, -0.25, 0.79, 3.71, -7.91, 0.49
32579, 0.60, -0.24, 0.79, 2.17, -8.40, 0.84
32580, 0.60, -0.24, 0.80, 3.36, -8.33, 0.35
32581, 0.60, -0.25, 0.80, 3.22, -8.26, -0.49
32582, 0.60, -0.25, 0.80, 2.45, -8.26, -1.61
32583, 0.59, -0.25, 0.79, 1.19, -9.31, -0.84
32584, 0.60, -0.23, 0.79, 0.35, -10.29, 1.33
32585, 0.61, -0.23, 0.79, -0.56, -10.22, 2.03
32586, 0.61, -0.23, 0.79, 0.28, -8.54, 0.91
32587, 0.61, -0.24, 0.78, -0.63, -8.33, -0.14
32588, 0.62, -0.24, 0.78, 0.42, -9.38, -0.14
32589, 0.62, -0.25, 0.78, 1.61, -10.15, 0.42
32590, 0.63, -0.24, 0.78, 0.28, -10.43, -0.35
32591, 0.62, -0.24, 0.78, -0.91, -10.64, -0.28
32592, 0.61, -0.23, 0.77, -1.33, -11.90, 1.26
32593, 0.63, -0.23, 0.77, -4.48, -10.64, 1.26
32594, 0.63, -0.22, 0.77, -6.44, -9.52, 0.42
32595, 0.64, -0.23, 0.76, -4.76, -8.33, -0.21
32596, 0.65, -0.24, 0.75, -1.33, -8.82, -1.19
32597, 0.65, -0.26, 0.74, -3.01, -8.82, -1.40
32598, 0.66, -0.27, 0.74, -0.98, -10.99, -0.98
32599, 0.69, -0.29, 0.74, -2.80, -11.13, -4.06
32600, 0.70, -0.29, 0.72, -7.63, -9.80, -4.55
32601, 0.69, -0.26, 0.72, -8.47, -6.02, -6.16
32602, 0.69, -0.28, 0.74, -7.70, -10.15, -9.73
32603, 0.69, -0.24, 0.73, -7.84, -3.64, -17.29
32604, 0.66, -0.22, 0.72, -1.05, 10.08, -13.51
32605, 0.71, -0.22, 0.74, 2.80, 17.92, -12.11
32606, 0.71, -0.18, 0.74, 0.00, 35.49, -6.86
32607, 0.58, -0.20, 0.74, 9.03, 49.42, 6.65
32608, 0.56, -0.25, 0.79, 2.73, 36.75, 16.45
32609, 0.62, -0.27, 0.82, 12.04, 35.28, 16.59
32610, 0.62, -0.24, 0.82, 17.64, 34.09, 6.58
32611, 0.56, -0.20, 0.79, 24.29, 31.92, 1.54
32612, 0.53, -0.18, 0.82, 28.35, 23.66, 2.24
32613, 0.48, -0.17, 0.79, 26.81, 13.79, 9.52
32614, 0.47, -0.14, 0.80, 15.05, 0.00, 11.90
32615, 0.49, -0.14, 0.81, -2.52, -17.08, 4.76
32616, 0.53, -0.15, 0.82, -8.26, -28.35, -0.63
32617, 0.55, -0.18, 0.83, -10.92, -39.48, 2.17
32618, 0.64, -0.21, 0.85, -7.14, -37.45, -3.92
32619, 0.69, -0.25, 0.80, 5.18, -29.19, -16.52
32620, 0.64, -0.21, 0.73, -1.19, -23.80, -12.39
32621, 0.62, -0.18, 0.76, -1.96, -15.54, 7.63
32622, 0.65, -0.21, 0.77, 1.96, -12.74, 12.18
32623, 0.66, -0.24, 0.76, 2.17, -6.72, 13.23
32624, 0.65, -0.22, 0.77, 6.02, -3.36, 11.90
32625, 0.65, -0.19, 0.76, 0.56, -1.82, 10.29
32626, 0.63, -0.18, 0.77, -0.42, -0.63, 10.01
32627, 0.63, -0.20, 0.79, 1.96, 2.87, 11.76
32628, 0.62, -0.22, 0.76, -0.91, 3.50, 9.66
32629, 0.63, -0.21, 0.77, -3.64, 7.07, 5.81
32630, 0.63, -0.23, 0.78, -3.01, 5.81, 2.03
32631, 0.64, -0.22, 0.79, 1.82, 9.45, -2.31
32632, 0.63, -0.21, 0.78, 1.33, 9.31, -5.11
32633, 0.63, -0.25, 0.78, -1.26, 16.94, -3.15
32634, 0.60, -0.22, 0.78, 1.40, 14.49, -0.98
32635, 0.59, -0.20, 0.79, 1.47, 10.85, 0.56
32636, 0.58, -0.23, 0.78, -2.45, 9.31, 4.27
32637, 0.52, -0.23, 0.79, -0.56, 1.75, 4.97
32638, 0.53, -0.28, 0.78, -0.84, -10.99, 8.12
32639, 0.57, -0.22, 0.81, 1.54, -14.14, 4.69
32640, 0.62, -0.20, 0.82, -3.92, -5.46, 2.80
32641, 0.59, -0.21, 0.79, -0.49, -1.75, 2.66
32642, 0.59, -0.23, 0.79, 1.75, -3.01, 6.09
32643, 0.61, -0.25, 0.79, 2.03, 2.31, 5.53
32644, 0.61, -0.26, 0.79, 1.54, 7.84, 3.36
32645, 0.61, -0.23, 0.80, 0.84, 8.54, 6.51
32646, 0.59, -0.24, 0.82, 3.22, 9.87, 10.01
32647, 0.59, -0.23, 0.80, 8.33, 11.76, 14.35
32648, 0.59, -0.24, 0.80, 9.31, 10.85, 18.13
32649, 0.59, -0.27, 0.81, 6.02, 13.02, 15.75
32650, 0.59, -0.25, 0.82, 9.17, 15.26, 11.27
32651, 0.58, -0.26, 0.81, 8.61, 13.37, 7.00
32652, 0.55, -0.24, 0.81, 9.52, 12.32, 0.63
32653, 0.53, -0.30, 0.80, 7.98, 2.80, -4.41
32654, 0.55, -0.23, 0.83, 11.27, -1.26, -7.21
32655, 0.56, -0.21, 0.83, 10.78, 1.05, -6.23
32656, 0.51, -0.21, 0.83, 14.56, -0.42, -10.92
32657, 0.52, -0.26, 0.82, 15.40, -16.24, -8.19
32658, 0.60, -0.19, 0.84, 22.54, -17.29, -13.30
32659, 0.65, -0.07, 0.83, -9.10, 12.11, -10.29
32660, 0.56, -0.21, 0.81, -20.51, 13.51, -2.73
32661, 0.55, -0.21, 0.82, -23.73, 7.56, -1.26
32662, 0.53, -0.23, 0.85, -14.21, -1.33, -6.58
32663, 0.55, -0.28, 0.77, -33.74, 4.27, -0.63
32664, 0.48, -0.31, 0.82, -29.82, -9.66, 5.81
32665, 0.57, -0.25, 0.81, -23.80, -15.26, 11.41
32666, 0.58, -0.23, 0.83, -36.33, 2.66, 5.39
32667, 0.57, -0.20, 0.86, -12.74, -15.12, 2.94
32668, 0.59, -0.24, 0.84, -11.13, -5.60, -0.21
