t,ax,ay,az,gx,gy,gz
22330, 0.23, 0.17, 0.98, 0.28, -0.70, 0.42
22331, 0.23, 0.16, 0.99, 0.63, -0.42, -0.28
22332, 0.22, 0.16, 0.98, 0.91, -0.42, 1.33
22333, 0.22, 0.17, 0.99, 0.35, -0.70, 0.35
22334, 0.23, 0.17, 0.99, 2.31, -4.97, -1.75
22335, 0.22, 0.17, 0.99, 2.03, -1.40, -1.26
22336, 0.22, 0.17, 0.98, 0.35, -1.47, -1.40
22337, 0.23, 0.17, 0.98, -1.82, -2.31, -2.59
22338, 0.22, 0.16, 0.99, -0.63, -2.59, -2.59
22339, 0.24, 0.17, 0.99, 0.00, -2.94, -1.61
22340, 0.23, 0.16, 0.98, 0.07, -3.15, -0.91
22341, 0.23, 0.16, 0.98, 2.03, -3.22, 0.91
22342, 0.24, 0.17, 0.98, 1.26, -2.52, -0.70
22343, 0.23, 0.16, 0.99, 0.77, -0.98, -0.35
22344, 0.24, 0.18, 0.98, 2.38, -2.52, -0.07
22345, 0.23, 0.17, 0.98, -0.35, -1.33, -1.05
22346, 0.21, 0.16, 0.99, 1.47, -1.33, 0.42
22347, 0.24, 0.18, 0.98, 1.75, -3.08, -1.61
22348, 0.22, 0.16, 0.98, 0.00, -1.12, -1.19
22349, 0.24, 0.18, 0.98, 2.10, -2.38, -0.07
22350, 0.24, 0.17, 0.98, -0.14, -2.66, -1.75
22351, 0.22, 0.16, 0.99, 0.84, -2.24, 0.77
22352, 0.25, 0.18, 0.98, 2.03, -4.62, -0.07
22353, 0.22, 0.16, 0.98, -0.63, -3.15, -0.28
22354, 0.23, 0.16, 0.98, 1.96, -0.98, 1.47
22355, 0.25, 0.18, 0.98, 0.84, -2.17, -0.56
22356, 0.22, 0.16, 0.98, -0.21, -1.05, 0.77
22357, 0.25, 0.18, 0.98, 1.89, -2.73, 0.56
22358, 0.23, 0.16, 0.98, 0.07, -1.54, -0.35
22359, 0.22, 0.16, 0.98, 2.59, -0.70, 1.61
22360, 0.25, 0.17, 0.98, 1.05, -1.19, -0.28
22361, 0.23, 0.16, 0.97, 0.77, -0.07, -1.12
22362, 0.23, 0.16, 0.98, 4.27, -0.21, -2.31
22363, 0.24, 0.16, 0.98, 6.30, -1.82, -5.81
22364, 0.24, 0.15, 0.99, 5.32, 2.24, -7.70
22365, 0.25, 0.16, 0.98, 6.79, 2.03, -8.82
22366, 0.24, 0.16, 0.99, 6.93, 3.57, -8.40
22367, 0.25, 0.16, 0.98, 8.68, 5.53, -8.12
22368, 0.25, 0.18, 0.99, 10.57, 8.19, -7.91
22369, 0.22, 0.17, 0.98, 10.08, 8.19, -6.37
22370, 0.23, 0.19, 0.98, 9.45, 8.40, -5.25
22371, 0.22, 0.20, 0.98, 9.17, 8.96, -2.52
22372, 0.20, 0.21, 0.98, 8.75, 10.78, 2.52
22373, 0.19, 0.23, 0.97, 7.70, 7.84, 7.56
22374, 0.18, 0.23, 0.97, 5.39, 4.55, 10.78
22375, 0.18, 0.22, 0.99, 2.94, 2.87, 12.25
22376, 0.18, 0.23, 0.98, 1.68, 2.94, 13.09
22377, 0.18, 0.24, 0.98, -0.21, 0.63, 11.76
22378, 0.18, 0.22, 0.99, -0.84, -0.77, 10.29
22379, 0.19, 0.22, 0.99, -1.96, 0.00, 8.26
22380, 0.20, 0.22, 0.98, -3.43, -0.21, 5.25
22381, 0.19, 0.19, 0.99, -1.96, -1.40, 3.29
22382, 0.20, 0.18, 0.98, -1.61, -1.05, 3.29
22383, 0.20, 0.20, 0.98, -1.96, -1.40, 3.36
22384, 0.20, 0.18, 0.99, -1.96, -1.26, 3.50
22385, 0.20, 0.18, 0.99, -1.05, -0.56, 4.06
22386, 0.21, 0.18, 0.98, -1.05, -0.84, 3.29
22387, 0.21, 0.18, 0.99, -0.14, -0.77, 2.73
22388, 0.20, 0.18, 0.99, 0.77, 0.00, 2.66
22389, 0.21, 0.19, 0.98, 0.21, -0.42, 1.61
22390, 0.20, 0.19, 0.99, -0.35, -0.91, 1.05
22391, 0.19, 0.18, 0.99, 1.26, -0.84, 1.47
22392, 0.20, 0.19, 0.98, 0.56, -1.33, 1.40
22393, 0.20, 0.20, 0.98, 0.49, -1.33, 0.28
22394, 0.20, 0.19, 0.99, 0.98, -1.61, -1.05
22395, 0.21, 0.19, 0.98, 0.91, -1.12, -2.66
22396, 0.20, 0.19, 0.98, 1.54, -0.42, -3.01
22397, 0.20, 0.18, 0.99, 1.82, -0.70, -2.31
22398, 0.20, 0.19, 0.99, 1.33, -0.63, -1.68
22399, 0.20, 0.19, 0.98, 1.19, -0.84, -2.10
22400, 0.20, 0.18, 0.99, 1.54, -1.05, -1.54
22401, 0.20, 0.19, 0.99, 2.52, 0.49, 0.00
22402, 0.21, 0.20, 0.98, 2.24, -1.47, -1.47
22403, 0.19, 0.20, 1.00, 3.36, -2.38, -0.84
22404, 0.19, 0.19, 0.98, 2.80, -3.50, -0.42
22405, 0.19, 0.19, 0.99, 2.24, -2.03, -1.61
22406, 0.20, 0.21, 0.98, 2.03, -1.75, -1.47
22407, 0.19, 0.20, 0.98, 0.63, -3.22, -1.96
22408, 0.19, 0.19, 0.99, 1.26, -4.41, -0.14
22409, 0.21, 0.21, 0.98, -0.21, -4.13, -0.42
22410, 0.21, 0.19, 0.98, -0.70, -3.85, -1.12
22411, 0.20, 0.18, 0.99, 2.10, -2.73, 0.28
22412, 0.22, 0.21, 0.98, 1.61, -2.94, -0.63
22413, 0.20, 0.20, 0.98, 0.63, -3.36, -0.42
22414, 0.21, 0.18, 0.99, 2.10, -2.52, 1.19
22415, 0.23, 0.20, 0.98, 1.54, -3.36, -0.14
22416, 0.20, 0.20, 0.98, 1.33, -2.03, 0.42
22417, 0.21, 0.19, 0.97, 2.73, -2.10, 1.89
22418, 0.23, 0.21, 0.98, 1.68, -3.71, 0.14
22419, 0.19, 0.18, 0.98, 1.05, -2.52, 0.56
22420, 0.21, 0.19, 0.98, 2.59, -1.82, 1.47
22421, 0.23, 0.21, 0.98, 1.61, -3.64, -0.98
22422, 0.20, 0.19, 0.99, 0.91, -1.75, -0.21
22423, 0.22, 0.19, 0.98, 3.50, -1.82, 1.61
22424, 0.23, 0.21, 0.98, 2.52, -2.45, -0.56
22425, 0.20, 0.18, 0.99, 1.75, -1.19, 0.21
22426, 0.24, 0.21, 0.97, 3.78, -0.21, 2.94
22427, 0.21, 0.21, 0.97, 0.21, 0.77, 4.20
22428, 0.20, 0.21, 0.98, -2.73, 2.03, 5.18
22429, 0.22, 0.22, 0.97, -4.48, 0.14, 3.36
22430, 0.22, 0.20, 0.98, -3.92, -1.61, 2.03
22431, 0.21, 0.20, 0.98, -2.80, -1.19, 1.82
22432, 0.21, 0.19, 0.98, -2.03, -2.80, -0.98
22433, 0.20, 0.18, 0.98, -0.49, -3.64, -0.91
22434, 0.22, 0.18, 0.99, 1.61, -5.39, -1.54
22435, 0.21, 0.18, 0.99, 4.20, -7.35, -1.40
22436, 0.22, 0.17, 0.98, 6.51, -8.05, -1.68
22437, 0.21, 0.17, 0.99, 8.26, -8.89, -2.03
22438, 0.22, 0.18, 0.98, 9.31, -8.05, -1.54
22439, 0.24, 0.19, 0.98, 10.01, -7.91, -3.15
22440, 0.24, 0.20, 0.98, 9.38, -4.41, -2.31
22441, 0.24, 0.21, 0.97, 8.40, -1.54, -0.98
22442, 0.24, 0.22, 0.97, 5.11, 0.98, -1.33
22443, 0.24, 0.23, 0.97, 2.73, 1.19, -1.05
22444, 0.23, 0.22, 0.97, 0.49, 2.17, -0.98
22445, 0.24, 0.23, 0.97, -0.70, 1.82, -1.82
22446, 0.23, 0.22, 0.97, 0.42, 2.10, -1.89
22447, 0.23, 0.21, 0.97, 0.56, 1.89, -0.70
22448, 0.23, 0.22, 0.97, 0.35, 2.10, 1.05
22449, 0.21, 0.22, 0.98, -17.92, 0.84, 1.47
22450, 0.23, 0.22, 0.97, -1.26, 0.56, 0.35
22451, 0.23, 0.21, 0.97, -0.77, 0.28, 0.63
22452, 0.22, 0.21, 0.98, -0.98, 0.98, 1.33
22453, 0.22, 0.21, 0.97, -1.75, 1.05, 0.49
22454, 0.22, 0.21, 0.97, 0.07, 0.21, 0.14
22455, 0.22, 0.20, 0.98, 0.35, -0.07, -0.63
22456, 0.22, 0.21, 0.98, 0.77, -0.49, -0.56
22457, 0.22, 0.21, 0.98, 1.82, -0.77, -0.42
22458, 0.23, 0.21, 0.97, 1.47, 0.42, -1.26
22459, 0.22, 0.21, 0.98, 2.80, -1.19, -0.56
22460, 0.21, 0.20, 0.98, 2.03, 0.56, 0.07
22461, 0.22, 0.21, 0.97, 2.10, 0.07, 0.35
22462, 0.22, 0.22, 0.97, 1.82, 0.63, 0.49
22463, 0.21, 0.21, 0.98, 2.73, -0.49, 1.05
22464, 0.22, 0.22, 0.98, 2.59, -0.49, 0.98
22465, 0.22, 0.22, 0.97, 1.96, 0.14, 0.56
22466, 0.21, 0.21, 0.98, 2.17, -1.05, 0.35
22467, 0.22, 0.22, 0.98, 1.68, -0.21, 0.63
22468, 0.21, 0.22, 0.97, 0.84, -0.49, -0.07
22469, 0.21, 0.21, 0.98, 1.26, -1.05, -0.21
22470, 0.21, 0.21, 0.97, 1.12, -1.33, -1.12
22471, 0.23, 0.22, 0.98, 3.15, -3.43, -1.54
22472, 0.21, 0.22, 0.98, 2.73, -3.57, -1.54
22473, 0.21, 0.21, 0.97, 0.49, -2.10, -2.24
22474, 0.22, 0.22, 0.98, 1.82, -3.22, -1.19
22475, 0.22, 0.22, 0.98, -0.49, -3.29, -1.89
22476, 0.22, 0.21, 0.97, -0.14, -4.55, -0.98
22477, 0.23, 0.21, 0.98, 1.75, -3.15, 1.54
22478, 0.23, 0.22, 0.98, 0.35, -2.52, 0.07
22479, 0.22, 0.21, 0.98, 1.75, -2.94, 0.70
22480, 0.23, 0.22, 0.96, 1.89, -1.68, 1.47
22481, 0.23, 0.22, 0.97, -0.77, -2.66, 0.14
22482, 0.22, 0.21, 0.98, 0.21, -3.15, 1.19
22483, 0.24, 0.23, 0.97, 0.21, -2.59, 0.35
22484, 0.22, 0.21, 0.97, -1.40, -1.40, -0.28
22485, 0.21, 0.21, 0.98, 0.91, -2.03, 2.31
22486, 0.24, 0.23, 0.98, -0.84, -2.45, 0.56
22487, 0.21, 0.21, 0.97, -1.54, -2.52, 0.07
22488, 0.22, 0.20, 0.97, -0.07, -1.68, 2.31
22489, 0.26, 0.23, 0.97, -6.93, 1.40, -0.63
22490, 0.22, 0.20, 0.98, -5.88, 3.08, 1.40
22491, 0.24, 0.22, 0.98, -2.94, 3.43, 2.66
22492, 0.24, 0.22, 0.97, -9.17, 6.79, 1.61
22493, 0.23, 0.21, 0.97, -9.73, 10.43, 4.62
22494, 0.24, 0.21, 0.98, -7.49, 5.18, 1.96
22495, 0.20, 0.18, 0.98, -10.29, 7.63, 2.73
22496, 0.23, 0.20, 0.98, -7.28, 9.10, 5.81
22497, 0.21, 0.19, 0.97, -11.69, 10.85, 4.62
22498, 0.20, 0.18, 0.98, -10.71, 11.34, 4.69
22499, 0.21, 0.19, 0.99, -10.92, 12.88, 2.59
22500, 0.20, 0.19, 0.98, -11.90, 13.65, 2.24
22501, 0.20, 0.18, 0.99, -10.43, 12.18, 1.54
22502, 0.18, 0.15, 1.00, -11.34, 11.20, -0.07
22503, 0.18, 0.14, 1.01, -7.42, 7.91, -1.68
22504, 0.16, 0.13, 1.00, -3.99, 3.50, -2.03
22505, 0.15, 0.12, 0.99, -1.47, 1.82, -1.61
22506, 0.16, 0.13, 0.99, 0.42, 0.07, -3.22
22507, 0.16, 0.13, 1.01, 0.56, 0.63, -4.48
22508, 0.15, 0.12, 1.01, 1.19, 2.10, -3.85
22509, 0.16, 0.13, 1.01, 2.03, 1.54, -4.13
22510, 0.14, 0.13, 1.01, 1.19, 0.63, -3.57
22511, 0.14, 0.12, 1.01, 1.61, 0.07, -2.24
22512, 0.15, 0.14, 1.00, 3.01, -1.05, -1.96
22513, 0.15, 0.14, 1.01, 3.50, -1.61, -2.24
22514, 0.15, 0.14, 1.00, 4.27, -0.77, -0.77
22515, 0.16, 0.16, 1.00, 4.97, -0.91, -0.70
22516, 0.16, 0.15, 1.00, 3.50, -0.91, 0.00
22517, 0.16, 0.16, 1.00, 2.80, 0.07, 1.19
22518, 0.17, 0.17, 0.99, 1.47, -0.56, 0.07
22519, 0.16, 0.16, 1.00, 0.84, -1.12, 0.98
22520, 0.17, 0.16, 1.00, 0.14, 0.56, 1.61
22521, 0.17, 0.16, 0.99, 0.84, -0.07, 0.56
22522, 0.16, 0.15, 1.00, 1.12, 0.21, 0.91
22523, 0.17, 0.16, 0.99, 1.19, 0.28, 1.33
22524, 0.16, 0.16, 1.00, 0.77, -1.68, 1.26
22525, 0.15, 0.14, 1.01, 0.49, -1.75, 1.68
22526, 0.16, 0.16, 1.00, 0.84, -0.77, 1.54
22527, 0.16, 0.16, 1.00, 0.42, -1.12, 0.84
22528, 0.16, 0.15, 1.00, 0.70, -0.63, 1.40
22529, 0.16, 0.16, 1.00, 0.84, -0.56, 1.19
22530, 0.16, 0.16, 1.00, 0.70, -1.26, 0.35
22531, 0.16, 0.14, 1.00, 0.91, -1.26, 0.70
22532, 0.17, 0.16, 1.00, 1.05, -1.19, 1.33
22533, 0.17, 0.16, 1.00, 0.91, -0.91, 0.98
22534, 0.15, 0.15, 1.00, 0.49, -1.33, 0.98
22535, 0.16, 0.15, 1.00, 0.56, -1.12, 1.19
22536, 0.17, 0.16, 0.99, 0.77, -0.91, 0.98
22537, 0.16, 0.15, 1.01, 0.84, -1.19, 0.91
22538, 0.16, 0.15, 1.00, 0.56, -0.56, 1.33
22539, 0.16, 0.16, 0.99, 1.05, -1.05, 0.70
22540, 0.16, 0.15, 1.00, 1.12, -1.75, 0.35
22541, 0.16, 0.15, 1.00, 0.70, -0.63, 1.26
22542, 0.16, 0.16, 1.00, 1.05, -1.05, 0.21
22543, 0.17, 0.14, 1.00, 1.26, -1.54, -1.47
22544, 0.16, 0.14, 1.00, 2.31, 0.21, -0.84
22545, 0.16, 0.15, 1.00, 2.52, -0.07, -0.63
22546, 0.15, 0.15, 1.00, 1.82, -1.68, -1.96
22547, 0.16, 0.15, 1.00, 3.22, -1.40, -0.84
22548, 0.16, 0.17, 1.00, 3.85, -2.59, 0.21
22549, 0.16, 0.16, 1.00, 1.05, -2.17, -0.14
22550, 0.15, 0.16, 0.99, 0.49, -1.68, -0.98
22551, 0.16, 0.17, 1.00, 2.10, -2.10, -0.42
22552, 0.17, 0.16, 1.00, -1.47, -3.92, -3.43
22553, 0.17, 0.15, 1.01, -0.56, -2.31, -2.31
22554, 0.17, 0.16, 0.99, 1.61, -0.35, -0.42
22555, 0.17, 0.16, 0.99, -0.84, -3.15, -2.45
22556, 0.15, 0.14, 1.01, -1.12, -2.03, -0.77
22557, 0.17, 0.16, 1.00, 1.61, -2.24, -0.14
22558, 0.16, 0.15, 1.00, -0.63, -2.59, -1.40
22559, 0.15, 0.14, 1.01, 0.07, -1.47, 0.00
22560, 0.17, 0.16, 0.99, 2.17, -2.94, 0.00
22561, 0.16, 0.15, 1.00, -0.49, -1.54, -1.40
22562, 0.15, 0.15, 1.00, 1.82, -0.63, 0.98
22563, 0.18, 0.16, 1.00, 1.40, -3.57, -1.26
22564, 0.16, 0.15, 1.00, -0.91, -0.98, -0.84
22565, 0.17, 0.16, 1.00, 1.96, -1.61, 1.40
22566, 0.18, 0.16, 1.00, 0.49, -4.27, -0.14
22567, 0.16, 0.15, 1.00, -1.61, -2.17, 0.35
22568, 0.18, 0.16, 0.99, 2.10, -0.63, 1.96
22569, 0.18, 0.16, 0.99, -0.49, -1.89, -0.35
22570, 0.16, 0.14, 1.00, -0.14, -0.14, 2.03
22571, 0.18, 0.17, 1.00, 1.54, -2.38, 1.61
22572, 0.17, 0.15, 0.99, -1.26, -0.14, 1.33
22573, 0.17, 0.14, 0.99, 1.26, 0.70, 3.01
22574, 0.17, 0.16, 0.99, 0.14, -0.63, 1.54
22575, 0.16, 0.15, 1.00, -1.05, 1.47, 1.96
22576, 0.17, 0.15, 1.00, 1.26, 0.63, 2.66
22577, 0.17, 0.15, 1.00, -0.21, -0.14, 1.19
22578, 0.16, 0.14, 1.00, 0.63, -0.70, 2.17
22579, 0.17, 0.14, 1.00, 1.54, -0.35, 2.24
22580, 0.16, 0.14, 1.00, 1.54, -0.63, 2.31
22581, 0.17, 0.15, 1.00, 2.66, -1.89, 2.80
22582, 0.17, 0.15, 1.01, 1.89, -1.40, 2.52
22583, 0.17, 0.14, 1.00, 1.47, -0.35, 3.01
22584, 0.17, 0.15, 1.00, 1.19, -0.63, 2.38
22585, 0.17, 0.16, 1.00, 1.47, -0.56, 1.96
22586, 0.16, 0.14, 1.00, 1.54, 0.14, 2.45
22587, 0.17, 0.15, 1.00, 2.31, 17.85, 2.45
22588, 0.17, 0.16, 1.00, 1.82, -0.28, 2.10
22589, 0.16, 0.14, 1.00, 0.91, -1.40, 2.10
22590, 0.16, 0.15, 1.00, 0.42, 0.14, 2.45
22591, 0.17, 0.16, 0.99, 0.35, -0.91, 1.82
22592, 0.17, 0.15, 1.01, -0.70, -1.40, 1.40
22593, 0.17, 0.15, 1.00, -0.07, 0.00, 2.17
22594, 0.17, 0.16, 0.99, 0.42, -0.70, 1.33
22595, 0.17, 0.14, 1.00, -0.42, -1.75, 0.56
22596, 0.17, 0.14, 1.00, 0.14, -0.70, 1.75
22597, 0.17, 0.15, 0.99, 0.21, -1.05, 1.82
22598, 0.17, 0.15, 1.00, -0.84, -1.96, 1.26
22599, 0.16, 0.14, 1.00, -0.84, -2.31, 1.61
22600, 0.17, 0.14, 0.99, 1.05, -3.29, 0.56
22601, 0.17, 0.14, 1.00, 1.05, -3.22, -0.70
22602, 0.16, 0.13, 1.01, 2.73, -3.29, -0.70
22603, 0.18, 0.14, 1.00, 3.22, -3.78, -1.26
22604, 0.18, 0.15, 1.00, 2.80, -3.08, -1.05
22605, 0.17, 0.14, 1.00, 2.17, -2.38, -0.28
22606, 0.18, 0.15, 1.00, 1.47, -0.63, 0.56
22607, 0.18, 0.16, 1.00, 1.19, -0.28, 0.91
22608, 0.17, 0.14, 1.00, 1.05, -1.12, 0.49
22609, 0.18, 0.15, 1.00, 1.61, -0.21, 0.49
22610, 0.18, 0.15, 0.99, 2.17, -0.70, -0.42
22611, 0.17, 0.15, 1.00, 2.10, -1.82, -1.40
22612, 0.17, 0.14, 1.00, 2.73, -1.47, -0.70
22613, 0.18, 0.15, 1.12, 2.59, -1.47, -0.35
22614, 0.18, 0.16, 1.00, 1.96, -1.12, -0.63
22615, 0.17, 0.14, 1.00, 1.26, -0.56, -0.56
22616, 0.17, 0.15, 1.00, 1.68, -0.63, -0.63
22617, 0.18, 0.15, 1.00, 2.10, -0.56, -1.47
22618, 0.17, 0.14, 1.00, 2.10, -0.98, -1.12
22619, 0.17, 0.15, 0.99, 1.54, -0.98, -1.96
22620, 0.19, 0.16, 1.01, 3.71, -5.95, -5.11
22621, 0.17, 0.15, 1.00, 5.88, -2.31, -3.22
22622, 0.16, 0.15, 0.98, 4.20, -3.15, -3.71
22623, 0.18, 0.16, 1.00, 4.55, -4.97, -4.55
22624, 0.19, 0.16, 1.00, 4.27, -3.36, -4.83
22625, 0.17, 0.15, 1.00, 6.93, -5.04, -4.06
22626, 0.18, 0.16, 0.99, 8.68, -6.37, -4.83
22627, 0.19, 0.15, 0.99, 7.70, -6.09, -5.67
22628, 0.17, 0.16, 1.01, 11.13, -7.07, -2.80
22629, 0.19, 0.17, 0.99, 12.11, -7.56, 0.42
22630, 0.18, 0.19, 0.98, 8.47, -6.65, 1.68
22631, 0.18, 0.19, 0.99, 8.26, -5.32, 3.71
22632, 0.20, 0.20, 0.99, 6.72, -7.35, 2.66
22633, 0.18, 0.20, 0.98, 5.39, -7.49, 2.38
22634, 0.18, 0.19, 0.98, 8.54, -7.00, 4.90
22635, 0.20, 0.21, 0.99, 7.63, -11.55, 3.01
22636, 0.19, 0.20, 0.99, 9.59, -13.37, 4.34
22637, 0.22, 0.20, 0.98, 10.99, -14.07, 7.21
22638, 0.23, 0.21, 0.97, 7.14, -12.18, 5.11
22639, 0.22, 0.21, 0.98, 8.82, -10.99, 6.86
22640, 0.25, 0.22, 0.97, 9.31, -11.83, 6.23
22641, 0.23, 0.21, 0.96, 9.03, -11.62, 5.39
22642, 0.23, 0.21, 0.98, 8.75, -8.82, 7.00
22643, 0.26, 0.22, 0.97, 6.30, -7.21, 5.39
22644, 0.24, 0.21, 0.96, 8.05, -5.39, 5.39
22645, 0.24, 0.21, 0.96, 6.51, -3.99, 4.97
22646, 0.26, 0.21, 0.97, 5.32, -5.11, 2.31
22647, 0.26, 0.21, 0.97, 8.12, -3.78, 1.12
22648, 0.26, 0.22, 0.97, 8.19, -2.59, 0.56
22649, 0.25, 0.22, 0.97, 7.21, -1.47, 1.40
22650, 0.25, 0.22, 0.96, 4.62, 0.00, 0.98
22651, 0.26, 0.24, 0.96, 2.87, 0.28, -0.35
22652, 0.25, 0.23, 0.97, 2.59, 0.35, -0.42
22653, 0.24, 0.23, 0.97, 1.05, 1.96, -0.91
22654, 0.26, 0.24, 0.96, 1.12, 3.22, -1.89
22655, 0.24, 0.23, 0.96, 3.36, 0.28, -2.03
22656, 0.24, 0.23, 0.97, 3.29, 1.40, -1.26
22657, 0.13, 0.24, 0.96, 2.38, 1.89, -1.82
22658, 0.23, 0.23, 0.97, 3.36, -0.63, -1.68
22659, 0.24, 0.23, 0.97, 2.52, 0.42, -1.19
22660, 0.25, 0.24, 0.96, 1.82, 1.33, -1.75
22661, 0.24, 0.23, 0.97, 3.29, -0.91, -1.75
22662, 0.23, 0.23, 0.97, 2.45, 0.98, -0.63
22663, 0.25, 0.24, 0.96, 1.54, 1.40, -1.12
22664, 0.24, 0.24, 0.96, 3.36, -1.12, -1.54
22665, 0.23, 0.23, 0.97, 3.36, -0.42, -0.70
22666, 0.24, 0.24, 0.96, 2.31, 0.42, -0.91
22667, 0.24, 0.24, 0.96, 3.64, -1.68, -0.84
22668, 0.23, 0.24, 0.97, 2.73, -1.26, -0.14
22669, 0.24, 0.26, 0.96, 0.84, 0.07, -0.63
22670, 0.24, 0.25, 0.96, 3.71, -2.10, -0.49
22671, 0.23, 0.24, 0.97, 2.94, -1.54, 0.70
22672, 0.24, 0.25, 0.96, 1.82, -1.54, 0.14
22673, 0.24, 0.25, 0.96, 4.69, -4.55, -0.42
22674, 0.23, 0.23, 0.97, 5.39, -3.78, 0.35
22675, 0.24, 0.25, 0.97, 4.27, -3.01, 0.84
22676, 0.25, 0.25, 0.95, 5.60, -4.55, 0.07
22677, 0.24, 0.24, 0.97, 7.84, -6.86, 0.28
22678, 0.24, 0.25, 0.96, 7.35, -4.76, 0.77
22679, 0.25, 0.26, 0.95, 7.49, -3.78, -0.28
22680, 0.25, 0.26, 0.96, 8.68, -6.16, -0.56
22681, 0.24, 0.26, 0.96, 8.33, -5.32, 0.21
22682, 0.25, 0.27, 0.95, 6.58, -4.69, -0.77
22683, 0.27, 0.27, 0.96, 8.40, -8.47, -2.03
22684, 0.26, 0.29, 0.96, 7.14, -6.02, 0.21
22685, 0.24, 0.27, 0.94, 1.40, -4.06, 1.61
22686, 0.27, 0.29, 0.94, 0.00, -2.80, 1.68
22687, 0.27, 0.29, 0.95, -4.06, -2.17, 0.28
22688, 0.24, 0.26, 0.96, -2.80, -5.32, 2.38
22689, 0.29, 0.28, 0.94, -4.90, -1.89, 0.84
22690, 0.26, 0.27, 0.94, -2.59, -3.29, -0.07
22691, 0.25, 0.24, 0.96, 0.35, -4.27, 1.68
22692, 0.29, 0.27, 0.95, -1.05, -3.85, -0.56
22693, 0.26, 0.26, 0.95, 0.98, -5.04, -0.07
22694, 0.27, 0.26, 0.95, 0.63, -3.99, 0.42
22695, 0.29, 0.27, 0.94, -1.33, -2.59, -1.68
22696, 0.25, 0.25, 0.96, 1.75, -4.27, 0.63
22697, 0.28, 0.26, 0.95, 0.07, -2.73, 0.63
22698, 0.28, 0.27, 0.94, -1.96, -2.59, 0.00
22699, 0.25, 0.24, 0.96, 1.68, -3.71, 2.52
22700, 0.30, 0.27, 0.94, -0.56, -1.54, 1.89
22701, 0.28, 0.27, 0.94, -0.63, -2.52, 0.42
22702, 0.25, 0.25, 0.96, 1.82, -2.52, 1.82
22703, 0.30, 0.28, 0.94, -0.91, -1.47, 0.35
22704, 0.26, 0.26, 0.95, -0.21, -3.64, 0.91
22705, 0.29, 0.27, 0.94, -0.70, -1.40, 1.33
22706, 0.28, 0.26, 0.94, -2.38, -1.19, 0.14
22707, 0.28, 0.25, 0.94, -0.91, 1.12, 2.24
22708, 0.29, 0.26, 0.94, -3.01, 3.50, 3.08
22709, 0.28, 0.27, 0.95, -4.62, 2.10, 1.82
22710, 0.28, 0.25, 0.95, -3.57, 1.61, 1.68
22711, 0.28, 0.25, 0.96, -3.64, 3.50, 1.33
22712, 0.26, 0.25, 0.95, -3.99, 3.29, 1.05
22713, 0.27, 0.24, 0.95, -3.64, 1.05, -0.28
22714, 0.28, 0.24, 0.96, -1.19, 1.12, -1.47
22715, 0.26, 0.23, 0.96, 0.35, 0.70, -0.63
22716, 0.27, 0.23, 0.96, -0.35, 1.96, -0.77
22717, 0.28, 0.24, 0.96, 0.49, 2.66, -0.35
22718, 0.25, 0.23, 0.96, 2.45, 0.35, 0.49
22719, 0.25, 0.24, 0.96, 1.12, 2.10, 1.33
22720, 0.27, 0.25, 0.95, 0.21, 3.29, 1.05
22721, 0.26, 0.25, 0.96, 1.47, -0.07, 0.63
22722, 0.25, 0.24, 0.96, 0.07, 0.56, 0.35
22723, 0.26, 0.25, 0.96, -0.21, 1.82, -1.19
22724, 0.26, 0.25, 0.96, 1.19, 0.91, -2.45
22725, 0.25, 0.24, 0.96, 1.26, 0.21, -1.96
22726, 0.26, 0.25, 0.96, 0.56, 1.40, -1.82
22727, 0.26, 0.25, 0.96, -0.14, 1.12, -2.03
22728, 0.26, 0.24, 0.96, 0.07, 0.00, -0.42
22729, 0.24, 0.25, 0.96, -2.10, 1.82, 2.03
22730, 0.25, 0.26, 0.96, -6.02, 3.99, 2.52
22731, 0.26, 0.25, 0.96, -6.02, 5.25, 1.54
22732, 0.24, 0.24, 0.96, -9.73, 5.81, 1.26
22733, 0.24, 0.24, 0.97, -9.73, 5.25, 0.07
22734, 0.25, 0.24, 0.96, -9.31, 4.97, -1.47
22735, 0.25, 0.22, 0.97, -7.28, 2.59, -2.73
22736, 0.24, 0.21, 0.97, -6.72, 3.08, -2.45
22737, 0.25, 0.21, 0.97, -5.11, 3.50, -2.52
22738, 0.23, 0.21, 0.98, -2.59, 2.59, -2.52
22739, 0.22, 0.20, 0.98, -2.52, 2.10, -1.40
22740, 0.24, 0.21, 0.98, -4.13, 3.64, -0.49
22741, 0.24, 0.21, 0.97, -2.73, 4.34, -0.84
22742, 0.22, 0.20, 0.98, -0.42, 2.52, -1.54
22743, 0.22, 0.21, 0.98, -0.42, 2.17, -1.26
22744, 0.22, 0.21, 0.97, 0.70, 0.98, -1.89
22745, 0.23, 0.21, 0.98, 2.24, -0.07, -2.87
22746, 0.21, 0.20, 0.98, 3.08, -1.61, -2.66
22747, 0.22, 0.21, 0.98, 3.36, -1.33, -1.82
22748, 0.22, 0.22, 0.97, 3.29, -2.17, -1.96
22749, 0.22, 0.21, 0.98, 3.99, -2.52, -2.94
22750, 0.22, 0.21, 0.97, 4.83, -3.15, -4.27
22751, 0.23, 0.22, 0.98, 8.75, -5.39, -4.06
22752, 0.21, 0.23, 0.98, 7.84, -2.45, -2.87
22753, 0.22, 0.23, 0.96, 4.13, -4.62, -2.73
22754, 0.23, 0.24, 0.98, 3.15, -5.18, -2.17
22755, 0.22, 0.22, 0.97, 2.38, -3.50, -0.49
22756, 0.23, 0.23, 0.96, 4.20, -5.18, -1.61
22757, 0.22, 0.23, 0.97, 3.78, -3.85, -1.47
22758, 0.22, 0.22, 0.98, 5.39, -4.97, -2.31
22759, 0.26, 0.23, 0.97, 3.57, -4.83, -5.11
22760, 0.24, 0.23, 0.96, 5.39, -4.55, -2.52
22761, 0.22, 0.23, 0.98, 6.16, -4.34, 1.61
22762, 0.25, 0.25, 0.96, 4.27, -4.83, 1.96
22763, 0.24, 0.24, 0.96, 3.15, -4.06, 3.64
22764, 0.22, 0.24, 0.97, 2.87, -4.34, 6.37
22765, 0.26, 0.26, 0.96, 1.05, -3.43, 5.04
22766, 0.24, 0.25, 0.96, 0.21, -3.15, 4.34
22767, 0.22, 0.23, 0.98, 1.33, -4.69, 6.02
22768, 0.26, 0.25, 0.96, -0.98, -4.27, 3.92
22769, 0.25, 0.24, 0.96, -2.24, -4.62, 3.64
22770, 0.22, 0.22, 0.98, -0.56, -5.39, 5.88
22771, 0.27, 0.24, 0.96, -1.19, -4.83, 3.71
22772, 0.25, 0.23, 0.96, -1.89, -4.41, 2.66
22773, 0.24, 0.21, 0.97, 0.42, -4.41, 4.48
22774, 0.28, 0.23, 0.96, -0.91, -2.38, 2.94
22775, 0.26, 0.22, 0.95, -1.61, -2.24, 2.24
22776, 0.25, 0.21, 0.96, 0.91, -2.45, 3.29
22777, 0.27, 0.23, 0.95, 0.07, -0.91, 1.96
22778, 0.26, 0.22, 0.95, -0.70, -0.28, 0.28
22779, 0.27, 0.23, 0.97, 0.91, -0.42, 0.84
22780, 0.26, 0.23, 0.97, 2.03, -1.82, 1.33
22781, 0.26, 0.22, 0.96, 1.47, -1.47, 0.21
22782, 0.27, 0.22, 0.97, 2.94, 0.35, 1.26
22783, 0.27, 0.24, 0.97, 2.38, 0.07, 1.26
22784, 0.25, 0.22, 0.97, 1.68, 0.07, 0.63
22785, 0.25, 0.22, 0.96, 1.82, 2.66, 0.84
22786, 0.26, 0.23, 0.97, 1.47, 2.10, -1.05
22787, 0.26, 0.23, 0.97, 2.24, 1.82, -1.61
22788, 0.24, 0.22, 0.97, 2.87, 2.03, 0.07
22789, 0.25, 0.23, 0.96, 0.91, 2.52, 0.42
22790, 0.26, 0.23, 0.96, 1.47, 2.03, -0.14
22791, 0.25, 0.22, 0.97, 3.50, 0.63, 0.35
22792, 0.24, 0.22, 0.97, 3.50, 1.61, 1.82
22793, 0.24, 0.23, 0.96, 2.31, 1.19, 1.40
22794, 0.26, 0.24, 0.96, 2.80, 0.42, 0.70
22795, 0.24, 0.23, 0.97, 3.01, -1.40, 1.54
22796, 0.24, 0.24, 0.97, 2.10, 0.35, 1.61
22797, 0.25, 0.24, 0.96, 1.40, 0.00, 1.12
22798, 0.26, 0.24, 0.97, 1.47, -0.98, 0.42
22799, 0.24, 0.23, 0.97, 1.05, -0.77, 0.56
22800, 0.25, 0.24, 0.96, -0.35, -0.21, 0.49
22801, 0.25, 0.24, 0.96, -0.77, -0.42, 0.63
22802, 0.24, 0.23, 0.96, -0.28, -2.59, 2.38
22803, 0.24, 0.23, 0.97, -1.05, -0.63, 6.44
22804, 0.24, 0.24, 0.96, -3.43, -0.49, 8.26
22805, 0.26, 0.25, 0.96, -3.64, -0.77, 7.07
22806, 0.24, 0.22, 0.97, -4.06, -2.59, 5.18
22807, 0.25, 0.22, 0.97, -3.15, -1.61, 2.24
22808, 0.25, 0.22, 0.96, -2.66, -1.89, -0.77
22809, 0.26, 0.21, 0.97, -1.82, -3.15, -3.64
22810, 0.25, 0.20, 0.98, 0.35, -2.59, -3.99
22811, 0.26, 0.20, 0.97, 0.84, -1.96, -4.76
22812, 0.27, 0.21, 0.96, 1.26, -0.70, -4.90
22813, 0.25, 0.20, 0.97, 2.73, -1.47, -3.08
22814, 0.25, 0.21, 0.97, 2.66, -0.21, -1.05
22815, 0.25, 0.22, 0.97, 2.31, 0.28, -0.77
22816, 0.26, 0.23, 0.96, 3.15, 0.28, -1.33
22817, 0.23, 0.22, 0.97, 3.64, 0.14, -0.98
22818, 0.25, 0.23, 0.97, 1.68, -1.33, -3.78
22819, 0.26, 0.25, 0.97, 6.72, -1.47, -3.36
22820, 0.23, 0.24, 0.97, 1.19, -3.50, -4.34
22821, 0.24, 0.23, 0.96, 0.84, -3.50, -6.16
22822, 0.25, 0.23, 0.97, 2.94, -2.17, -4.69
22823, 0.26, 0.24, 0.97, 1.75, -4.20, -5.46
22824, 0.25, 0.23, 0.96, 3.64, -6.02, -5.11
22825, 0.25, 0.22, 0.98, 5.25, -5.67, -3.36
22826, 0.28, 0.24, 0.96, 5.32, -3.92, -4.20
22827, 0.26, 0.24, 0.96, 6.23, -4.97, -3.99
22828, 0.25, 0.23, 0.98, 5.95, -4.20, -1.75
22829, 0.28, 0.25, 0.95, 4.27, -2.94, -1.19
22830, 0.26, 0.25, 0.96, 4.13, -2.66, 0.56
22831, 0.23, 0.24, 0.97, 4.90, -4.06, 4.13
22832, 0.27, 0.27, 0.95, 1.54, -1.75, 3.43
22833, 0.26, 0.26, 0.95, -0.77, -1.75, 2.17
22834, 0.24, 0.24, 0.97, 0.14, -2.45, 3.01
22835, 0.28, 0.26, 0.95, 0.42, -1.47, 3.15
22836, 0.26, 0.26, 0.95, -0.91, -2.87, 2.45
22837, 0.24, 0.24, 0.97, 0.84, -4.06, 4.55
22838, 0.29, 0.26, 0.95, -2.66, -1.54, 3.64
22839, 0.28, 0.23, 0.95, -2.17, -2.17, 2.66
22840, 0.25, 0.22, 0.97, 1.68, -2.10, 4.90
22841, 0.29, 0.24, 0.95, 1.33, -0.84, 4.34
22842, 0.27, 0.24, 0.95, 0.35, -1.40, 3.71
22843, 0.25, 0.23, 0.96, 1.68, -2.45, 5.60
22844, 0.30, 0.25, 0.95, 0.98, -1.12, 4.83
22845, 0.26, 0.23, 0.95, -1.12, -0.42, 4.76
22846, 0.26, 0.23, 0.96, 0.07, 0.77, 5.81
22847, 0.27, 0.24, 0.95, -2.03, 2.80, 5.32
22848, 0.27, 0.24, 0.95, -1.89, 1.82, 4.06
22849, 0.27, 0.24, 0.97, -1.82, 1.89, 3.29
22850, 0.26, 0.23, 0.97, -1.61, 2.17, 3.43
22851, 0.26, 0.23, 0.96, -2.59, 3.85, 3.57
22852, 0.26, 0.23, 0.96, -4.34, 4.76, 2.45
22853, 0.27, 0.22, 0.96, -3.99, 3.78, 1.61
22854, 0.26, 0.22, 0.97, -2.52, 3.99, 1.68
22855, 0.25, 0.21, 0.96, -2.31, 5.11, 1.89
22856, 0.26, 0.21, 0.97, -2.38, 4.76, 0.91
22857, 0.26, 0.21, 0.98, -2.24, 6.23, -0.07
22858, 0.25, 0.22, 0.96, -6.93, 8.68, 0.00
22859, 0.26, 0.22, 0.97, -9.80, 10.08, -0.35
22860, 0.25, 0.20, 0.97, -8.05, 9.45, -0.28
22861, 0.24, 0.20, 0.98, -8.26, 9.31, -0.14
22862, 0.24, 0.21, 0.97, -10.64, 11.69, 1.75
22863, 0.24, 0.21, 0.97, -11.34, 11.90, 1.26
22864, 0.24, 0.20, 0.98, -12.04, 12.88, 0.49
22865, 0.20, 0.18, 0.98, -6.72, 8.33, -0.14
22866, 0.20, 0.18, 0.98, -3.85, 5.18, -0.63
22867, 0.20, 0.18, 0.98, -2.52, 2.94, -1.33
22868, 0.21, 0.18, 0.99, -1.89, 2.59, -1.54
22869, 0.20, 0.18, 0.99, -2.66, 4.62, 0.63
22870, 0.20, 0.19, 0.98, -3.43, 4.55, 2.38
22871, 0.19, 0.19, 1.00, -5.39, 4.76, 3.15
22872, 0.19, 0.18, 0.99, -6.02, 2.80, 2.52
22873, 0.19, 0.18, 0.99, -4.83, 0.63, 0.42
22874, 0.20, 0.17, 0.98, -2.24, -0.70, -1.82
22875, 0.19, 0.15, 1.00, -0.42, -1.19, -3.01
22876, 0.19, 0.16, 1.00, 0.63, -0.77, -3.15
22877, 0.20, 0.16, 0.98, 0.91, -1.96, -3.99
22878, 0.20, 0.16, 1.00, 0.28, -0.63, -3.99
22879, 0.19, 0.15, 0.99, 0.77, -0.91, -3.01
22880, 0.20, 0.16, 0.99, 1.61, -0.84, -2.31
22881, 0.20, 0.17, 0.99, 2.45, -0.77, -2.24
22882, 0.19, 0.16, 0.99, 1.89, -0.35, -1.40
22883, 0.19, 0.17, 0.99, 2.66, 0.49, 0.07
22884, 0.20, 0.18, 0.99, 2.73, -0.42, -0.28
22885, 0.20, 0.18, 0.99, 2.03, -0.07, -0.28
22886, 0.19, 0.17, 0.99, 1.47, -1.19, 0.91
22887, 0.19, 0.18, 1.00, 1.89, -1.40, 1.33
22888, 0.20, 0.18, 0.98, 1.19, -1.96, 1.26
22889, 0.20, 0.18, 0.99, 0.56, -1.75, 0.98
22890, 0.18, 0.17, 1.00, 0.35, -0.49, 1.19
22891, 0.19, 0.18, 0.98, 0.63, -1.61, -0.28
22892, 0.21, 0.18, 1.01, 4.27, -4.83, -1.26
22893, 0.19, 0.18, 1.00, 2.52, -0.98, -0.49
22894, 0.19, 0.17, 0.97, 0.56, -1.12, -1.40
22895, 0.20, 0.17, 0.99, 0.21, -1.40, -1.12
22896, 0.20, 0.18, 1.00, -0.91, -1.96, -0.98
22897, 0.20, 0.17, 0.99, -1.12, -2.10, -0.63
22898, 0.20, 0.17, 0.99, 0.07, -2.31, 0.21
22899, 0.22, 0.18, 0.99, 0.07, -0.84, 0.00
22900, 0.21, 0.18, 0.99, -1.89, -1.05, -0.91
22901, 0.20, 0.16, 0.99, -0.77, -1.12, 0.42
22902, 0.21, 0.18, 0.99, 0.21, -0.70, 1.12
22903, 0.21, 0.17, 0.99, -1.33, -1.54, -0.56
22904, 0.20, 0.16, 0.99, -1.12, -0.07, 0.42
22905, 0.21, 0.17, 0.99, 2.24, -0.56, 1.75
22906, 0.20, 0.17, 0.98, -0.21, -0.63, -0.21
22907, 0.19, 0.17, 1.00, -0.35, -0.70, 0.63
22908, 0.20, 0.17, 0.99, 2.03, -0.49, 1.40
22909, 0.21, 0.17, 0.99, 0.28, -2.87, -1.61
22910, 0.19, 0.15, 1.00, 0.42, 0.07, -1.19
22911, 0.20, 0.17, 0.99, 3.36, 0.49, 0.28
22912, 0.20, 0.17, 0.99, 0.63, -1.47, -2.03
22913, 0.18, 0.16, 1.01, 0.00, 0.07, -0.14
22914, 0.21, 0.17, 0.99, 3.64, -0.49, 2.24
22915, 0.21, 0.18, 0.98, 0.63, -1.61, 0.00
22916, 0.19, 0.17, 0.99, -0.84, 0.98, 0.42
22917, 0.19, 0.17, 0.99, 3.43, 2.10, 3.64
22918, 0.21, 0.19, 0.99, 2.10, -2.52, 1.12
22919, 0.18, 0.16, 0.99, -0.35, -0.14, 2.10
22920, 0.19, 0.18, 0.99, 3.29, 0.35, 3.64
22921, 0.20, 0.18, 0.97, 0.07, -1.75, 1.54
22922, 0.18, 0.17, 0.98, -2.10, 0.98, 1.75
22923, 0.20, 0.17, 0.99, 1.40, 0.00, 0.14
22924, 0.20, 0.17, 1.00, 3.71, -2.31, -1.96
22925, 0.21, 0.16, 0.99, 3.22, 0.56, -3.29
22926, 0.20, 0.16, 1.00, 3.43, 3.64, -1.96
22927, 0.19, 0.16, 0.99, 2.80, 2.10, -0.07
22928, 0.19, 0.16, 0.99, 4.13, 2.17, 2.94
22929, 0.19, 0.16, 0.99, 3.57, 1.47, 4.62
22930, 0.19, 0.18, 1.00, 3.36, 2.52, 6.93
22931, 0.18, 0.17, 1.00, 3.78, 1.96, 6.86
22932, 0.19, 0.18, 0.99, 4.13, 1.96, 3.36
22933, 0.18, 0.18, 1.00, 4.34, 1.68, -0.84
22934, 0.18, 0.18, 1.00, 3.57, 2.45, -2.94
22935, 0.17, 0.18, 0.99, 3.64, 1.82, -1.96
22936, 0.18, 0.18, 0.99, 2.87, -0.07, -0.98
22937, 0.18, 0.18, 0.99, 2.59, -0.63, -0.28
22938, 0.18, 0.17, 0.99, 2.80, -1.33, 1.26
22939, 0.18, 0.18, 0.99, 2.94, -1.05, 2.24
22940, 0.19, 0.19, 0.99, 2.87, -1.40, 2.94
22941, 0.18, 0.19, 0.99, 2.80, -1.61, 3.36
22942, 0.17, 0.18, 0.99, 2.17, -0.84, 3.50
22943, 0.19, 0.19, 0.99, 1.47, -1.05, 2.52
22944, 0.18, 0.20, 0.99, 1.33, -0.49, 1.68
22945, 0.18, 0.18, 1.00, 1.05, -1.19, 0.84
22946, 0.18, 0.18, 0.99, 0.49, -0.70, 1.05
22947, 0.19, 0.19, 0.99, 0.21, -1.19, 0.63
22948, 0.18, 0.19, 0.99, 0.77, -1.54, 0.49
22949, 0.18, 0.17, 0.99, 0.91, -1.33, 0.77
22950, 0.19, 0.18, 0.99, 0.35, -1.05, 0.77
22951, 0.19, 0.19, 0.99, 0.35, -0.21, 0.14
22952, 0.18, 0.18, 1.00, 0.84, -1.19, -0.35
22953, 0.18, 0.17, 1.00, 0.84, -0.28, 0.21
22954, 0.19, 0.18, 0.98, 0.35, -0.63, -0.14
22955, 0.19, 0.18, 0.99, 0.56, -1.19, -0.63
22956, 0.18, 0.17, 1.00, 1.89, -1.40, -0.21
22957, 0.18, 0.18, 0.99, 1.19, -0.63, 0.00
22958, 0.19, 0.19, 0.99, 1.05, -0.21, -0.28
22959, 0.18, 0.19, 0.99, 1.19, -1.33, -0.35
22960, 0.18, 0.18, 1.00, 1.33, -0.21, 0.14
22961, 0.18, 0.19, 0.99, 1.12, -0.35, 0.00
22962, 0.18, 0.19, 0.99, 1.26, -0.70, -0.70
22963, 0.17, 0.18, 1.00, 1.61, -1.82, -0.42
22964, 0.18, 0.18, 0.99, 1.40, -0.91, -0.07
22965, 0.18, 0.19, 0.98, 1.26, -0.70, -0.49
22966, 0.18, 0.19, 0.99, 1.40, -0.84, -0.35
22967, 0.17, 0.18, 1.00, 1.33, -0.49, 0.14
22968, 0.19, 0.18, 0.99, 0.91, -2.52, -1.47
22969, 0.19, 0.20, 1.00, 2.87, -2.31, -0.84
22970, 0.17, 0.18, 0.99, 0.28, -3.78, -0.77
22971, 0.18, 0.18, 0.98, 0.28, -2.52, -1.47
22972, 0.18, 0.19, 1.00, 2.45, -0.70, 0.14
22973, 0.18, 0.19, 0.99, -0.70, -2.80, -2.03
22974, 0.18, 0.18, 0.99, 1.33, -2.73, -1.19
22975, 0.18, 0.18, 0.99, 2.10, -2.94, 1.33
22976, 0.20, 0.19, 0.98, 0.98, -4.90, -0.35
22977, 0.19, 0.18, 0.99, 1.05, -2.59, -0.14
22978, 0.18, 0.17, 0.99, 1.68, -3.15, 1.75
22979, 0.20, 0.20, 0.98, 1.26, -4.20, 0.84
22980, 0.19, 0.18, 0.99, 0.49, -1.75, 0.56
22981, 0.18, 0.17, 1.00, 1.47, -2.03, 2.17
22982, 0.20, 0.20, 0.99, 1.33, -3.64, 0.56
22983, 0.19, 0.18, 0.98, 0.21, -1.96, 0.21
22984, 0.18, 0.17, 0.99, 1.33, -1.89, 1.75
22985, 0.21, 0.20, 0.98, 2.24, -2.80, 0.35
22986, 0.19, 0.19, 0.99, 0.84, -1.40, -0.63
22987, 0.18, 0.18, 1.00, 1.61, -2.17, 0.84
22988, 0.21, 0.20, 0.98, 1.89, -3.85, 0.77
22989, 0.19, 0.18, 0.98, 0.00, -2.52, -1.26
22990, 0.18, 0.17, 1.00, 1.89, -1.12, 0.84
22991, 0.21, 0.20, 0.98, 2.24, -2.31, 0.63
22992, 0.19, 0.19, 0.98, 0.42, -1.47, -0.35
22993, 0.19, 0.17, 0.99, 2.03, -1.05, 0.63
22994, 0.21, 0.19, 0.98, 1.89, -1.54, -0.49
22995, 0.19, 0.18, 0.97, -0.07, 0.70, -0.77
22996, 0.19, 0.19, 0.99, -0.21, 1.33, -0.21
22997, 0.20, 0.20, 0.98, 0.63, 0.84, -0.84
22998, 0.20, 0.19, 0.99, 1.33, -0.84, -1.12
22999, 0.19, 0.18, 1.00, 1.05, 1.61, -0.98
23000, 0.19, 0.19, 0.99, 1.96, 0.84, -1.05
23001, 0.19, 0.19, 0.99, 2.03, 0.14, -0.84
23002, 0.18, 0.19, 0.99, 1.12, 0.70, -0.77
23003, 0.19, 0.19, 0.99, 0.84, -0.07, -1.12
23004, 0.19, 0.18, 0.99, 1.68, -0.70, -1.47
23005, 0.19, 0.18, 0.99, 1.68, 2.17, -0.70
23006, 0.18, 0.19, 0.99, 2.17, 1.05, -0.21
23007, 0.19, 0.19, 0.99, 1.33, -0.42, 0.49
23008, 0.18, 0.18, 0.99, 1.19, -0.84, 3.50
23009, 0.18, 0.20, 0.99, -0.42, 0.21, 5.53
23010, 0.19, 0.20, 0.99, -1.33, -1.05, 6.44
23011, 0.18, 0.19, 0.99, -3.01, -1.54, 6.72
23012, 0.18, 0.18, 0.99, -2.80, -1.26, 7.49
23013, 0.19, 0.19, 0.98, -2.52, -2.03, 7.07
23014, 0.19, 0.20, 0.99, -3.71, -0.91, 6.30
23015, 0.18, 0.19, 0.99, -4.55, -1.75, 4.83
23016, 0.21, 0.19, 0.99, -6.02, 0.42, 3.08
23017, 0.20, 0.19, 0.99, -6.30, 1.40, 1.05
23018, 0.19, 0.16, 0.99, -5.88, 1.61, -0.21
23019, 0.19, 0.16, 0.99, -4.55, 2.17, -0.91
23020, 0.19, 0.16, 0.98, -3.57, 1.68, -1.26
23021, 0.19, 0.15, 1.00, -3.15, 2.24, -0.42
23022, 0.19, 0.14, 1.01, -2.66, 4.69, 0.49
23023, 0.20, 0.16, 0.99, -3.01, 7.84, 0.49
23024, 0.20, 0.17, 0.99, -4.48, 8.54, 1.05
23025, 0.18, 0.15, 0.99, -5.32, 10.43, -0.21
23026, 0.17, 0.16, 1.00, -3.78, 11.48, -0.07
23027, 0.18, 0.17, 0.98, -2.66, 10.43, -1.82
23028, 0.17, 0.16, 1.00, -3.01, 8.54, -3.29
23029, 0.17, 0.16, 1.00, -4.06, 8.54, -5.11
23030, 0.18, 0.19, 0.99, -4.06, 8.82, -6.65
23031, 0.19, 0.20, 1.01, -6.30, 8.33, -10.85
23032, 0.19, 0.17, 1.02, -5.95, 8.47, -14.42
23033, 0.18, 0.19, 0.98, -6.72, 15.75, -11.90
23034, 0.20, 0.20, 0.97, -5.88, 17.57, -12.39
23035, 0.14, 0.15, 1.03, -5.39, 7.91, -16.24
23036, 0.12, 0.15, 1.01, -7.84, 4.97, -15.96
23037, 0.09, 0.13, 1.00, -14.35, 1.61, -15.47
23038, 0.09, 0.12, 1.02, -13.30, -0.70, -16.45
23039, 0.08, 0.08, 1.02, -12.81, -2.10, -20.65
23040, 0.06, 0.06, 1.02, -8.33, -2.24, -19.46
23041, 0.07, 0.07, 1.02, -2.52, 2.38, -16.24
23042, 0.05, 0.05, 1.02, -4.20, -1.33, -15.33
23043, 0.03, 0.04, 1.03, 0.35, 0.35, -12.74
23044, 0.02, 0.06, 1.01, 4.48, 0.91, -10.57
23045, 0.04, 0.05, 1.01, 0.00, -3.36, -10.08
23046, 0.04, 0.07, 1.03, -17.29, -1.75, -5.88
23047, 0.06, 0.11, 1.01, 2.66, 0.84, -3.85
23048, 0.10, 0.09, 1.02, -4.13, -5.81, -5.67
23049, 0.09, 0.08, 1.03, -1.19, -3.71, -2.10
23050, 0.12, 0.12, 1.00, 4.90, 0.35, 0.21
23051, 0.13, 0.13, 1.01, 0.07, -2.17, -0.56
23052, 0.12, 0.12, 1.02, -1.40, -2.17, -0.21
23053, 0.14, 0.15, 0.99, 5.04, 0.70, 2.38
23054, 0.15, 0.15, 0.98, 0.49, -2.52, 0.70
23055, 0.14, 0.15, 1.00, 1.75, -0.91, -1.40
23056, 0.14, 0.15, 0.99, 3.29, 1.19, -2.45
23057, 0.15, 0.16, 1.00, 5.60, 0.35, -5.53
23058, 0.16, 0.16, 1.02, 14.00, -3.71, -12.39
23059, 0.20, 0.19, 1.02, 34.02, 0.49, -19.25
23060, 0.19, 0.21, 1.00, 42.35, 1.89, -18.20
23061, 0.16, 0.19, 1.00, 38.99, 2.38, -11.13
23062, 0.18, 0.22, 0.97, 17.15, 4.76, -5.88
23063, 0.13, 0.22, 1.01, -1.19, 11.13, -0.70
23064, 0.10, 0.26, 1.00, -13.79, 3.78, -9.94
23065, 0.09, 0.30, 1.01, -23.52, -9.66, -27.51
23066, 0.11, 0.24, 1.03, -43.33, -16.80, -39.83
23067, 0.15, 0.16, 1.07, -44.17, -14.98, -42.70
23068, 0.17, 0.14, 1.06, -37.45, -0.49, -38.78
23069, 0.14, 0.14, 1.05, -43.75, 5.04, -38.92
23070, 0.13, 0.11, 1.07, -42.63, 4.97, -46.27
23071, 0.13, 0.12, 1.05, -44.03, 8.19, -51.24
23072, 0.16, 0.10, 1.03, -49.00, 15.26, -57.75
23073, 0.15, 0.12, 1.00, -67.06, 25.76, -69.86
23074, 0.14, 0.05, 0.99, -70.49, 18.48, -88.48
23075, 0.13, -0.03, 0.97, -65.31, 7.28, -95.97
23076, 0.15, -0.13, 0.99, -60.69, 4.83, -92.89
23077, 0.18, -0.12, 0.99, -58.38, 17.99, -84.63
23078, 0.17, -0.15, 0.97, -55.93, 20.79, -81.76
23079, 0.20, -0.20, 0.94, -50.26, 33.39, -73.71
