t,ax,ay,az,gx,gy,gz
24014, -0.39, 0.89, -0.09, 0.84, 36.19, -23.59
24015, -0.43, 0.90, -0.11, 2.31, 27.51, -21.63
24016, -0.47, 0.87, -0.08, 25.27, 18.62, -17.78
24017, -0.45, 0.84, -0.11, 34.09, 19.81, -7.56
24018, -0.45, 0.92, -0.16, 36.40, 12.11, -7.77
24019, -0.41, 0.85, -0.11, 48.65, 19.60, -12.67
24020, -0.39, 0.87, -0.16, 50.75, 21.00, -24.78
24021, -0.47, 0.90, -0.23, 43.47, 27.51, -22.68
24022, -0.50, 0.86, -0.27, 36.96, 21.21, -13.65
24023, -0.49, 0.86, -0.28, 26.74, 8.12, -3.50
24024, -0.48, 0.87, -0.32, 10.15, -6.65, 6.72
24025, -0.46, 0.87, -0.33, -4.20, -12.25, 11.97
24026, -0.46, 0.87, -0.31, -14.63, -17.78, 17.15
24027, -0.45, 0.87, -0.26, -24.01, -15.19, 21.56
24028, -0.46, 0.87, -0.26, -31.43, -24.71, 27.16
24029, -0.43, 0.90, -0.25, -31.99, -24.85, 24.08
24030, -0.44, 0.89, -0.23, -37.10, -30.87, 27.44
24031, -0.40, 0.89, -0.18, -37.94, -29.75, 25.48
24032, -0.40, 0.92, -0.15, -31.15, -25.48, 20.09
24033, -0.38, 0.91, -0.12, -26.18, -23.66, 15.68
24034, -0.39, 0.89, -0.13, -25.97, -24.78, 12.32
24035, -0.38, 0.93, -0.09, -22.68, -18.48, 8.12
24036, -0.38, 0.90, -0.07, -16.38, -17.92, 6.44
24037, -0.38, 0.89, -0.07, -9.87, -18.76, 2.59
24038, -0.38, 0.92, -0.07, -4.06, -10.08, 2.59
24039, -0.39, 0.92, -0.05, 0.98, -2.59, 1.61
24040, -0.37, 0.92, -0.06, 2.66, 5.60, 1.05
24041, -0.35, 0.93, -0.08, 1.68, 15.19, -5.88
24042, -0.40, 0.94, -0.09, 3.50, 18.90, -11.27
24043, -0.40, 0.91, -0.10, 1.19, 20.23, -14.21
24044, -0.39, 0.87, -0.07, -0.35, 21.21, -7.49
24045, -0.41, 0.89, -0.07, 26.81, 21.70, -7.91
24046, -0.40, 0.87, -0.06, 43.40, 24.78, -8.61
24047, -0.40, 0.91, -0.15, 46.48, 13.37, -18.13
24048, -0.39, 0.90, -0.17, 45.50, 11.69, -23.45
24049, -0.33, 0.90, -0.10, 47.88, 26.95, -39.97
24050, -0.43, 0.86, -0.16, 56.98, 49.21, -47.18
24051, -0.52, 0.84, -0.30, 52.08, 36.12, -28.49
24052, -0.56, 0.87, -0.34, 30.24, 8.96, -4.76
24053, -0.50, 0.84, -0.31, 7.35, -3.01, 17.57
24054, -0.42, 0.77, -0.36, 1.05, -9.38, 8.26
24055, -0.49, 0.89, -0.35, -20.09, -17.15, 18.41
24056, -0.47, 0.87, -0.29, -28.56, -24.78, 24.43
24057, -0.40, 0.84, -0.28, -38.99, -27.51, 29.75
24058, -0.43, 0.90, -0.21, -36.68, -25.13, 23.73
24059, -0.43, 0.90, -0.21, -39.06, -25.34, 25.06
24060, -0.39, 0.90, -0.21, -41.23, -20.30, 23.94
24061, -0.39, 0.91, -0.15, -35.98, -16.80, 20.09
24062, -0.37, 0.89, -0.11, -34.51, -18.97, 16.59
24063, -0.39, 0.91, -0.10, -25.48, -16.38, 10.29
24064, -0.39, 0.91, -0.09, -21.21, -13.72, 10.50
24065, -0.36, 0.90, -0.06, -18.55, -11.55, 6.37
24066, -0.37, 0.91, -0.04, -1.82, -2.80, 2.94
24067, -0.38, 0.91, -0.09, 4.27, -0.14, 1.05
24068, -0.36, 0.92, -0.08, 3.36, 9.38, -0.07
24069, -0.37, 0.92, -0.06, 12.53, 11.27, -9.03
24070, -0.37, 0.90, -0.08, 20.93, 17.01, -11.13
24071, -0.38, 0.91, -0.15, 18.76, 15.89, -12.53
24072, -0.41, 0.89, -0.11, 22.61, 15.96, -13.44
24073, -0.39, 0.91, -0.13, 29.82, 16.52, -14.21
24074, -0.41, 0.89, -0.14, 37.38, 11.83, -17.08
24075, -0.35, 0.92, -0.17, 36.82, 17.22, -21.63
24076, -0.38, 0.91, -0.17, 43.19, 34.86, -32.62
24077, -0.40, 0.85, -0.18, 46.48, 45.43, -38.64
24078, -0.53, 0.79, -0.22, 44.03, 34.72, -20.16
24079, -0.58, 0.93, -0.47, 9.52, 8.40, 7.77
24080, -0.46, 0.90, -0.28, -10.78, -22.54, 22.68
24081, -0.34, 0.92, -0.23, 0.84, -3.36, 13.44
24082, -0.47, 0.89, -0.35, -3.78, -13.23, 6.93
24083, -0.48, 0.91, -0.34, -29.68, -30.24, 24.01
24084, -0.41, 0.93, -0.31, -31.85, -21.84, 17.99
24085, -0.38, 0.92, -0.23, -18.83, -15.05, 13.37
24086, -0.43, 0.93, -0.26, -22.33, -15.68, 11.69
24087, -0.42, 0.90, -0.17, -25.06, -24.57, 14.91
24088, -0.40, 0.92, -0.13, -31.57, -22.96, 17.92
24089, -0.38, 0.90, -0.10, -20.65, -13.09, 13.16
24090, -0.34, 0.89, -0.10, -14.98, -6.09, 7.63
24091, -0.38, 0.92, -0.12, -7.42, 3.22, 3.92
24092, -0.38, 0.90, -0.08, -4.06, 2.73, 0.63
24093, -0.36, 0.90, -0.09, 6.51, 1.26, -6.16
24094, -0.39, 0.92, -0.15, 11.62, 7.98, -8.68
24095, -0.40, 0.91, -0.14, 12.04, 13.86, -7.63
24096, -0.37, 0.91, -0.13, 13.16, 13.93, -12.39
24097, -0.41, 0.91, -0.16, 14.84, 15.75, -14.00
24098, -0.41, 0.91, -0.17, 14.63, 14.49, -12.67
24099, -0.42, 0.88, -0.17, 18.76, 6.44, -11.06
24100, -0.41, 0.91, -0.21, 10.36, 13.72, -9.52
24101, -0.43, 0.90, -0.22, 8.68, 17.01, -7.98
24102, -0.43, 0.89, -0.22, -2.87, 13.09, -2.10
24103, -0.37, 0.89, -0.13, -2.31, 18.97, -6.58
24104, -0.37, 0.87, -0.11, 23.24, 25.34, -18.69
24105, -0.45, 0.87, -0.20, 28.70, 22.19, -17.01
24106, -0.49, 0.87, -0.28, 19.18, 2.59, -3.50
24107, -0.46, 0.90, -0.30, 3.78, -10.99, 8.61
24108, -0.45, 0.89, -0.27, -14.98, -22.61, 17.01
24109, -0.41, 0.90, -0.20, -15.47, -21.84, 16.59
24110, -0.41, 0.88, -0.19, -10.71, -18.55, 13.58
24111, -0.43, 0.90, -0.23, -14.70, -21.07, 14.49
24112, -0.42, 0.92, -0.20, -16.73, -22.33, 13.93
24113, -0.39, 0.89, -0.16, -22.68, -22.61, 15.68
24114, -0.38, 0.90, -0.15, -17.57, -19.11, 11.13
24115, -0.38, 0.91, -0.12, -15.05, -10.92, 8.26
24116, -0.38, 0.89, -0.11, -4.76, -7.21, 4.34
24117, -0.40, 0.91, -0.14, -2.87, -7.21, 3.71
24118, -0.39, 0.91, -0.14, -3.50, -0.98, 3.43
24119, -0.36, 0.92, -0.11, -0.28, 4.48, -1.40
24120, -0.38, 0.91, -0.14, -0.42, 10.22, -3.36
24121, -0.40, 0.91, -0.16, 3.22, 8.54, -7.35
24122, -0.41, 0.90, -0.13, 5.95, 6.09, -7.07
24123, -0.39, 0.90, -0.13, 8.75, 7.49, -5.39
24124, -0.38, 0.89, -0.14, 14.14, 7.07, -10.57
24125, -0.41, 0.92, -0.13, 21.42, 8.96, -14.56
24126, -0.42, 0.89, -0.16, 24.78, 6.23, -13.86
24127, -0.40, 0.89, -0.17, 26.60, 7.77, -13.51
24128, -0.42, 0.89, -0.21, 29.47, 7.00, -15.47
24129, -0.40, 0.89, -0.20, 23.87, 16.66, -16.73
24130, -0.43, 0.86, -0.21, 27.30, 18.27, -16.17
24131, -0.47, 0.86, -0.26, 20.93, 5.46, -2.66
24132, -0.46, 0.91, -0.26, 7.91, -5.18, 7.84
24133, -0.44, 0.87, -0.27, 0.77, -4.83, 9.45
24134, -0.49, 0.90, -0.39, -21.28, -23.59, 17.36
24135, -0.30, 0.86, 0.06, -22.05, -23.38, 1.96
24136, -0.45, 0.91, -0.31, -15.89, -8.68, 9.94
24137, -0.45, 0.90, -0.24, -24.08, -17.36, 15.19
24138, -0.41, 0.89, -0.20, -35.70, -24.85, 20.44
24139, -0.36, 0.88, -0.12, -27.72, -16.94, 14.21
24140, -0.41, 0.93, -0.18, -23.10, -15.82, 11.06
24141, -0.40, 0.91, -0.12, -24.29, -19.88, 9.31
24142, -0.37, 0.90, -0.14, -19.32, -14.56, 6.72
24143, -0.38, 0.91, -0.07, -14.91, -3.29, 5.53
24144, -0.38, 0.91, -0.07, -5.60, 1.26, 1.33
24145, -0.37, 0.91, -0.11, 5.53, 7.84, -2.94
24146, -0.38, 0.93, -0.13, 4.55, 7.63, -6.16
24147, -0.39, 0.89, -0.12, 2.03, 7.77, -3.92
24148, -0.39, 0.91, -0.11, 8.19, 8.82, -7.00
24149, -0.37, 0.91, -0.11, 14.70, 12.25, -11.83
24150, -0.39, 0.89, -0.15, 20.51, 11.48, -15.05
24151, -0.43, 0.92, -0.17, 16.45, 11.20, -12.60
24152, -0.42, 0.90, -0.17, 14.91, 9.94, -10.71
24153, -0.42, 0.89, -0.18, 13.65, 8.75, -9.94
24154, -0.44, 0.91, -0.21, 7.35, 8.96, -6.23
24155, -0.42, 0.89, -0.17, 0.98, 11.34, -2.87
24156, -0.39, 0.89, -0.15, 3.78, 11.06, -7.07
24157, -0.42, 0.89, -0.15, 9.73, 16.17, -11.13
24158, -0.44, 0.88, -0.19, 15.61, 15.19, -9.03
24159, -0.47, 0.90, -0.24, 9.87, -3.29, -3.85
24160, -0.44, 0.89, -0.20, 2.52, -10.29, -0.14
24161, -0.45, 0.88, -0.22, -2.59, -14.42, 5.88
24162, -0.43, 0.90, -0.20, -5.60, -18.34, 8.54
24163, -0.43, 0.88, -0.19, -6.02, -19.39, 8.68
24164, -0.43, 0.90, -0.20, -9.66, -18.41, 10.36
24165, -0.42, 0.91, -0.18, -15.89, -16.94, 11.62
24166, -0.40, 0.90, -0.16, -15.05, -18.76, 9.10
24167, -0.40, 0.91, -0.16, -16.38, -12.39, 6.93
24168, -0.42, 0.90, -0.11, -11.90, -2.94, 8.75
24169, -0.38, 0.90, -0.12, -11.34, -5.04, 4.55
24170, -0.38, 0.91, -0.13, -11.55, 0.07, -1.12
24171, -0.41, 0.92, -0.11, -13.65, 1.12, -9.45
24172, -0.40, 0.87, -0.06, 3.01, 6.23, -9.59
24173, -0.39, 0.89, -0.11, 13.93, 8.26, -13.86
24174, -0.41, 0.91, -0.13, 14.49, 15.05, -18.27
24175, -0.46, 0.89, -0.14, 14.56, 13.23, -15.47
24176, -0.43, 0.87, -0.13, 18.13, 13.16, -11.69
24177, -0.44, 0.89, -0.17, 19.25, 12.74, -12.04
24178, -0.46, 0.90, -0.18, 15.61, 15.26, -9.38
24179, -0.43, 0.88, -0.18, 15.12, 20.16, -10.01
24180, -0.46, 0.87, -0.20, 9.17, 20.30, -7.91
24181, -0.49, 0.88, -0.19, 6.93, 14.70, -4.62
24182, -0.46, 0.86, -0.19, 6.51, 4.69, 2.17
24183, -0.45, 0.87, -0.21, 3.01, 2.10, 6.09
24184, -0.46, 0.90, -0.22, -3.22, -4.48, 7.56
24185, -0.44, 0.88, -0.20, -3.36, -12.18, 5.67
24186, -0.46, 0.89, -0.23, -8.12, -18.97, 9.80
24187, -0.45, 0.89, -0.21, -15.89, -20.02, 12.74
24188, -0.42, 0.90, -0.18, -21.14, -18.41, 13.86
24189, -0.42, 0.90, -0.17, -23.52, -14.70, 11.69
24190, -0.42, 0.90, -0.16, -26.04, -13.79, 8.61
24191, -0.42, 0.90, -0.12, -21.91, -9.66, 5.67
24192, -0.44, 0.90, -0.14, -22.54, -12.32, 7.42
24193, -0.42, 0.91, -0.15, -33.39, -11.34, 7.00
24194, -0.43, 0.91, -0.07, -29.75, -3.92, 9.80
24195, -0.39, 0.88, -0.05, -22.26, 1.47, 8.05
24196, -0.41, 0.89, -0.06, -9.31, 1.19, 3.78
24197, -0.42, 0.94, -0.08, -2.73, 0.70, 1.47
24198, -0.39, 0.91, -0.07, -9.73, 6.79, -1.19
24199, -0.40, 0.89, -0.06, -4.55, 6.72, -7.14
24200, -0.41, 0.92, -0.06, -2.31, 3.71, -11.76
24201, -0.39, 0.90, -0.06, -0.91, 10.01, -15.26
24202, -0.43, 0.88, -0.07, 7.63, 13.02, -15.96
24203, -0.44, 0.90, -0.07, 13.09, 13.37, -13.37
24204, -0.48, 0.89, -0.10, 20.51, 6.58, -5.46
24205, -0.44, 0.91, -0.13, 14.63, 1.75, -2.17
24206, -0.42, 0.94, -0.11, 4.90, 8.75, -8.12
24207, -0.42, 0.90, -0.08, -0.84, 20.93, -11.13
24208, -0.42, 0.86, -0.10, -9.10, 35.56, -11.34
24209, -0.52, 0.86, -0.09, 13.79, 17.57, -5.25
24210, -0.47, 0.85, -0.12, 22.05, 3.57, 7.07
24211, -0.45, 0.92, -0.18, 6.09, -4.20, 9.31
24212, -0.45, 0.91, -0.16, -0.63, -6.30, 8.96
24213, -0.44, 0.89, -0.16, -7.14, -10.78, 11.27
24214, -0.46, 0.93, -0.16, -14.42, -10.92, 15.19
24215, -0.45, 0.92, -0.13, -23.24, -16.94, 18.48
24216, -0.41, 0.88, -0.12, -26.18, -14.07, 18.06
24217, -0.41, 0.93, -0.06, -19.32, -9.80, 11.90
24218, -0.43, 0.91, -0.07, -20.37, -8.05, 12.04
24219, -0.42, 0.92, -0.11, -20.65, -8.19, 14.70
24220, -0.41, 0.95, -0.05, -22.89, -8.33, 16.17
24221, -0.38, 0.93, -0.04, -25.83, -10.78, 11.06
24222, -0.38, 0.91, 0.01, -23.59, -5.11, 8.26
24223, -0.37, 0.90, -0.00, -15.75, -0.84, 7.70
24224, -0.38, 0.89, 0.02, -4.27, 3.08, 10.71
24225, -0.38, 0.91, 0.00, 10.78, 4.62, 8.82
24226, -0.35, 0.92, -0.02, 8.54, 7.21, 4.20
24227, -0.37, 0.93, -0.03, 12.67, 7.14, -1.40
24228, -0.39, 0.95, -0.06, 13.72, 3.85, -4.83
24229, -0.39, 0.93, -0.05, 12.81, 1.61, -5.04
24230, -0.39, 0.92, -0.05, 19.53, -6.37, -6.09
24231, -0.38, 0.94, -0.08, 12.46, -0.77, -5.32
24232, -0.37, 0.93, -0.04, 12.60, -1.54, -8.54
24233, -0.38, 0.89, -0.03, 16.31, 2.66, -11.83
24234, -0.41, 0.91, -0.11, 16.17, 2.80, -9.80
24235, -0.43, 0.93, -0.09, 13.93, 0.00, -6.23
24236, -0.40, 0.92, -0.08, 13.93, -6.02, -3.08
24237, -0.37, 0.89, -0.08, 3.22, 1.54, -3.78
24238, -0.34, 0.91, 0.00, 11.34, 14.21, -11.76
24239, -0.40, 0.89, -0.01, 23.59, 27.37, -18.48
24240, -0.50, 0.87, -0.14, 30.10, 10.92, -11.06
24241, -0.47, 0.96, -0.21, 14.49, -6.93, 2.87
24242, -0.46, 0.93, -0.15, 2.45, -9.17, 7.77
24243, -0.41, 0.91, -0.18, -11.41, -9.94, 12.95
24244, -0.43, 0.96, -0.14, -20.44, -7.00, 15.96
24245, -0.41, 0.92, -0.12, -26.11, -12.11, 18.13
24246, -0.42, 0.96, -0.14, -32.27, -14.91, 20.23
24247, -0.38, 0.93, -0.07, -32.41, -9.59, 18.34
24248, -0.40, 0.93, -0.10, -33.88, -5.74, 19.88
24249, -0.38, 0.96, -0.04, -40.32, -6.65, 16.52
24250, -0.35, 0.94, 0.04, -38.15, -5.46, 6.65
24251, -0.37, 0.89, 0.01, -25.27, -7.98, 5.32
24252, -0.36, 0.89, 0.07, -3.36, -9.45, 3.78
24253, -0.35, 0.90, 0.04, 1.40, -7.56, 1.47
24254, -0.35, 0.90, 0.07, 15.68, -3.85, -1.19
24255, -0.33, 0.91, 0.03, 25.76, -0.21, -6.44
24256, -0.36, 0.94, -0.02, 30.45, 5.04, -9.80
24257, -0.38, 0.95, -0.07, 30.03, 3.92, -14.98
24258, -0.38, 0.96, -0.11, 18.62, 8.19, -12.39
24259, -0.37, 0.93, -0.05, 10.64, 6.93, -14.70
24260, -0.36, 0.91, -0.05, 13.72, 13.02, -19.53
24261, -0.40, 0.90, -0.07, 10.50, 19.74, -19.95
24262, -0.47, 0.93, -0.09, 23.80, 10.99, -14.70
24263, -0.43, 0.90, -0.09, 23.52, -1.12, -9.59
24264, -0.41, 0.93, -0.10, 19.95, -3.22, -11.76
24265, -0.43, 0.92, -0.10, 16.31, 4.76, -12.39
24266, -0.39, 0.86, -0.09, 20.09, 16.03, -12.04
24267, -0.40, 0.90, -0.11, 19.74, 16.87, -16.80
24268, -0.42, 0.91, -0.05, 30.24, 28.35, -20.86
24269, -0.47, 0.83, -0.10, 31.43, 23.73, -15.68
24270, -0.49, 0.86, -0.20, 25.48, 7.21, -0.77
24271, -0.50, 0.91, -0.23, 10.50, -14.42, 9.59
24272, -0.43, 0.92, -0.23, -0.07, -9.94, 10.43
24273, -0.45, 0.90, -0.18, -12.67, -20.44, 18.27
24274, -0.44, 0.90, -0.18, -18.90, -14.63, 21.35
24275, -0.43, 0.89, -0.13, -20.58, -19.81, 22.68
24276, -0.43, 0.93, -0.14, -21.98, -23.24, 22.54
24277, -0.40, 0.90, -0.15, -28.91, -24.15, 24.92
24278, -0.37, 0.93, -0.08, -28.35, -18.69, 19.25
24279, -0.37, 0.91, -0.07, -20.44, -13.86, 11.20
24280, -0.38, 0.91, -0.06, -9.66, -10.43, 5.32
24281, -0.39, 0.93, -0.06, -5.67, -9.45, 2.24
24282, -0.37, 0.91, -0.06, -7.00, -2.73, 3.15
24283, -0.36, 0.91, -0.04, -6.30, 3.43, -1.40
24284, -0.39, 0.94, -0.07, -5.39, 8.89, -7.35
24285, -0.39, 0.91, -0.06, -3.08, 9.66, -11.69
24286, -0.39, 0.91, -0.06, -0.56, 10.85, -11.55
24287, -0.39, 0.91, -0.04, 4.48, 14.14, -10.78
24288, -0.40, 0.87, -0.03, 15.33, 12.32, -11.97
24289, -0.42, 0.89, -0.07, 24.99, 7.98, -6.09
24290, -0.38, 0.91, -0.06, 28.56, 11.48, -11.41
24291, -0.42, 0.94, -0.15, 25.83, 9.87, -18.20
24292, -0.45, 0.90, -0.14, 25.06, 7.07, -16.87
24293, -0.42, 0.90, -0.13, 20.16, 10.57, -11.76
24294, -0.43, 0.91, -0.11, 19.81, 17.29, -13.58
24295, -0.43, 0.88, -0.12, 22.26, 22.89, -15.12
24296, -0.51, 0.87, -0.20, 15.61, 7.77, 1.96
24297, -0.50, 0.88, -0.18, 5.81, -7.35, 14.70
24298, -0.39, 0.89, -0.15, 0.70, -14.14, 12.95
24299, -0.47, 0.93, -0.23, -8.33, -17.43, 14.70
24300, -0.45, 0.92, -0.16, -16.31, -25.20, 19.81
24301, -0.41, 0.87, -0.16, -27.72, -24.36, 28.42
24302, -0.41, 0.93, -0.10, -23.59, -26.95, 22.89
24303, -0.38, 0.91, -0.10, -22.47, -22.19, 20.51
24304, -0.41, 0.93, -0.11, -22.61, -21.84, 17.57
24305, -0.36, 0.92, -0.05, -16.52, -16.10, 11.06
24306, -0.38, 0.90, -0.07, -11.69, -12.81, 7.42
24307, -0.39, 0.93, -0.06, -8.54, -11.41, 5.88
24308, -0.25, 0.92, -0.04, -5.39, -10.15, 4.69
24309, -0.37, 0.91, -0.06, -3.64, -3.29, 3.64
24310, -0.36, 0.93, -0.04, -4.34, 5.88, 1.54
24311, -0.37, 0.92, -0.04, 1.61, 4.97, -4.76
24312, -0.40, 0.92, -0.06, 6.30, 1.96, -5.88
24313, -0.38, 0.92, -0.06, 10.50, 2.17, -4.55
24314, -0.36, 0.91, -0.04, 13.16, 5.11, -8.33
24315, -0.38, 0.90, -0.06, 18.34, 7.63, -12.18
24316, -0.42, 0.93, -0.08, 20.86, 6.37, -12.95
24317, -0.40, 0.91, -0.08, 20.86, 5.18, -11.27
24318, -0.41, 0.90, -0.09, 24.29, 1.40, -12.74
24319, -0.42, 0.91, -0.12, 24.71, 0.70, -12.39
24320, -0.41, 0.91, -0.13, 25.20, 0.56, -13.93
24321, -0.42, 0.91, -0.13, 18.97, 5.04, -11.34
24322, -0.43, 0.91, -0.16, 8.68, 10.71, -8.12
24323, -0.45, 0.89, -0.15, 4.41, 6.37, -3.85
24324, -0.44, 0.89, -0.16, -1.33, 2.80, 3.50
24325, -0.43, 0.90, -0.14, -6.16, -5.04, 5.95
24326, -0.41, 0.92, -0.13, -10.01, -7.42, 6.02
24327, -0.45, 0.90, -0.14, -8.33, -8.12, 6.65
24328, -0.42, 0.89, -0.14, -15.54, -15.96, 11.41
24329, -0.43, 0.92, -0.13, -17.85, -14.35, 11.83
24330, -0.42, 0.91, -0.12, -22.54, -18.83, 13.72
24331, -0.39, 0.91, -0.11, -24.08, -22.12, 11.62
24332, -0.39, 0.94, -0.08, -22.40, -17.15, 5.95
24333, -0.38, 0.92, -0.05, -24.01, -18.69, -3.29
24334, -0.41, 0.93, -0.04, -20.86, -16.73, -8.05
24335, -0.41, 0.87, 0.04, -15.47, -7.21, -0.21
24336, -0.41, 0.89, -0.05, -3.99, 0.91, 3.78
24337, -0.39, 0.95, -0.03, -5.32, 0.14, -3.15
24338, -0.39, 0.90, 0.00, -5.81, 5.53, -6.44
24339, -0.38, 0.90, -0.03, -7.98, 10.22, -11.69
24340, -0.41, 0.91, -0.01, -5.46, 11.20, -17.22
24341, -0.39, 0.90, 0.00, -0.07, 21.07, -22.12
24342, -0.45, 0.88, -0.04, 6.72, 21.70, -20.23
24343, -0.46, 0.89, -0.04, 16.38, 11.27, -16.38
24344, -0.47, 0.90, -0.06, 24.08, 4.69, -13.65
24345, -0.45, 0.91, -0.09, 18.27, -0.63, -15.05
24346, -0.45, 0.90, -0.07, 16.80, -3.64, -18.06
24347, -0.46, 0.89, -0.07, 14.14, -0.28, -18.34
24348, -0.46, 0.90, -0.08, 10.01, 4.20, -19.74
24349, -0.46, 0.89, -0.09, 5.60, 5.67, -24.15
24350, -0.49, 0.87, -0.09, 2.66, 7.28, -24.85
24351, -0.52, 0.88, -0.10, 2.73, 5.60, -21.70
24352, -0.53, 0.85, -0.09, 3.50, 2.73, -15.96
24353, -0.52, 0.86, -0.10, 4.97, -2.10, -10.29
24354, -0.53, 0.87, -0.08, 6.02, -4.90, -7.28
24355, -0.52, 0.84, -0.08, 9.73, -4.13, -4.62
24356, -0.51, 0.86, -0.09, 8.96, -2.31, -4.76
24357, -0.52, 0.86, -0.10, 10.64, -2.38, -4.83
24358, -0.52, 0.86, -0.10, 14.07, -3.36, -3.92
24359, -0.52, 0.85, -0.11, 12.18, -1.47, -5.53
24360, -0.52, 0.86, -0.12, 7.42, 0.91, -4.55
24361, -0.54, 0.86, -0.12, 5.18, 0.00, -3.29
24362, -0.54, 0.85, -0.13, 5.32, -2.66, -2.87
24363, -0.52, 0.86, -0.13, -0.84, -2.73, -3.92
24364, -0.52, 0.86, -0.11, -12.53, 3.85, -9.10
24365, -0.52, 0.83, -0.09, -10.92, 8.68, -10.22
24366, -0.53, 0.82, -0.08, -6.23, 9.87, -7.42
24367, -0.56, 0.84, -0.09, 6.30, 6.30, -5.25
24368, -0.55, 0.81, -0.09, 21.07, 0.21, -3.78
24369, -0.54, 0.82, -0.10, 30.52, -0.70, -1.19
24370, -0.55, 0.85, -0.14, 28.56, 0.70, -1.12
24371, -0.54, 0.83, -0.15, 25.55, 0.84, -3.43
24372, -0.57, 0.83, -0.16, 26.53, -3.99, -1.26
24373, -0.55, 0.85, -0.17, 20.30, -5.04, 2.24
24374, -0.55, 0.82, -0.16, 10.36, -4.62, 3.01
24375, -0.55, 0.80, -0.13, 20.23, -4.83, 5.88
24376, -0.55, 0.82, -0.17, 25.76, -4.83, 13.79
24377, -0.54, 0.84, -0.19, 18.06, -7.00, 19.95
24378, -0.52, 0.84, -0.18, 15.26, -8.05, 15.75
24379, -0.50, 0.86, -0.19, 12.11, -2.73, 10.57
24380, -0.52, 0.87, -0.22, -4.41, 2.52, 5.11
24381, -0.49, 0.89, -0.22, -21.35, 11.55, 0.49
24382, -0.49, 0.87, -0.20, -46.13, 21.07, -9.87
24383, -0.51, 0.87, -0.18, -56.84, 22.54, -15.75
24384, -0.53, 0.83, -0.15, -60.48, 23.38, -17.50
24385, -0.57, 0.81, -0.12, -51.94, 22.19, -9.52
24386, -0.53, 0.86, -0.10, -42.98, 27.79, -3.78
24387, -0.52, 0.82, -0.10, -47.11, 30.17, -3.15
24388, -0.56, 0.84, -0.10, -33.60, 23.66, 1.96
24389, -0.56, 0.83, -0.08, -19.74, 8.40, 6.37
24390, -0.52, 0.83, -0.09, -4.13, 2.38, 6.23
24391, -0.52, 0.87, -0.10, -6.86, 6.58, 4.83
24392, -0.53, 0.86, -0.09, -13.44, 5.95, 2.52
24393, -0.53, 0.84, -0.11, -7.07, -2.38, 2.31
24394, -0.55, 0.86, -0.09, 1.40, -12.46, 3.22
24395, -0.53, 0.84, -0.06, 9.17, -20.51, 5.18
24396, -0.52, 0.87, -0.09, 16.94, -29.68, -0.42
24397, -0.50, 0.84, -0.04, 21.56, -25.27, -0.63
24398, -0.46, 0.85, -0.04, 22.12, -6.65, -4.97
24399, -0.50, 0.88, -0.10, 19.95, 11.20, -14.56
24400, -0.54, 0.88, -0.13, 11.13, 8.54, -18.83
24401, -0.55, 0.84, -0.12, 11.41, -2.31, -20.44
24402, -0.58, 0.85, -0.14, 8.26, -7.84, -14.98
24403, -0.56, 0.83, -0.09, 3.01, -9.52, -11.83
24404, -0.53, 0.82, -0.10, 6.72, -8.12, -13.30
24405, -0.59, 0.82, -0.11, 12.88, -7.63, -8.61
24406, -0.57, 0.81, -0.09, 16.31, -12.18, -4.13
24407, -0.56, 0.80, -0.10, 21.91, -8.33, -2.17
24408, -0.57, 0.79, -0.08, 37.66, -10.15, 0.77
24409, -0.56, 0.80, -0.10, 45.22, -2.52, 1.68
24410, -0.57, 0.83, -0.16, 32.55, 5.81, 7.21
24411, -0.57, 0.85, -0.19, 22.19, 2.80, 8.68
24412, -0.57, 0.82, -0.18, 17.85, -1.19, 6.09
24413, -0.60, 0.82, -0.20, 14.00, -10.64, 16.66
24414, -0.54, 0.86, -0.19, -6.93, -5.32, 18.69
24415, -0.52, 0.86, -0.18, -29.05, 7.35, 16.45
24416, -0.51, 0.85, -0.15, -38.64, 11.97, 9.59
24417, -0.52, 0.84, -0.14, -38.43, 13.86, 4.69
24418, -0.54, 0.85, -0.14, -40.04, 13.86, 1.75
24419, -0.54, 0.84, -0.11, -33.53, 10.08, 2.45
24420, -0.52, 0.84, -0.10, -26.88, 10.36, 0.56
24421, -0.53, 0.85, -0.10, -22.40, 11.27, -2.03
24422, -0.54, 0.83, -0.09, -15.12, 8.12, -2.73
24423, -0.53, 0.84, -0.08, -8.12, 5.11, -3.50
24424, -0.54, 0.85, -0.09, -0.70, 1.33, -3.22
24425, -0.53, 0.84, -0.09, 3.71, 1.05, -6.72
24426, -0.52, 0.83, -0.08, 2.73, 3.71, -7.56
24427, -0.55, 0.84, -0.09, 2.24, 9.03, -4.97
24428, -0.57, 0.82, -0.09, 18.27, -2.59, -2.31
24429, -0.54, 0.82, -0.10, 30.66, -8.75, -1.75
24430, -0.56, 0.83, -0.13, 36.26, -10.99, 2.03
24431, -0.55, 0.85, -0.14, 39.69, -17.85, 2.38
24432, -0.53, 0.85, -0.14, 33.25, -16.38, 2.03
24433, -0.53, 0.84, -0.14, 24.92, -8.05, -1.19
24434, -0.53, 0.84, -0.17, 15.89, -3.85, -5.53
24435, -0.55, 0.85, -0.17, 2.94, -3.71, -7.14
24436, -0.55, 0.84, -0.17, -1.19, -4.27, -9.24
24437, -0.56, 0.81, -0.15, -1.26, -7.28, -9.31
24438, -0.56, 0.80, -0.13, 6.72, -9.38, -7.21
24439, -0.57, 0.82, -0.14, 15.33, -11.48, -5.81
24440, -0.57, 0.78, -0.12, 28.63, -13.37, -1.19
24441, -0.56, 0.77, -0.12, 47.25, -12.81, 3.08
24442, -0.59, 0.79, -0.15, 61.18, -13.16, 9.80
24443, -0.60, 0.76, -0.20, 73.29, -19.11, 24.22
24444, -0.56, 0.81, -0.25, 71.33, -26.18, 35.35
24445, -0.51, 0.90, -0.29, 40.11, -28.49, 25.41
24446, -0.51, 0.85, -0.27, 3.64, -18.83, 10.36
24447, -0.51, 0.82, -0.23, -1.33, -9.10, 5.32
24448, -0.51, 0.82, -0.23, -1.05, -0.21, -0.21
24449, -0.54, 0.82, -0.23, 0.42, 1.33, -2.87
24450, -0.54, 0.81, -0.23, -0.42, 3.64, -2.59
24451, -0.54, 0.83, -0.24, -5.81, 7.21, -1.82
24452, -0.52, 0.82, -0.22, -9.24, 12.53, -3.43
24453, -0.53, 0.83, -0.24, -17.29, 16.66, -5.95
24454, -0.53, 0.82, -0.24, -30.66, 23.10, -7.98
24455, -0.55, 0.83, -0.24, -40.60, 20.51, -8.68
24456, -0.59, 0.81, -0.24, -34.02, -1.40, -4.27
24457, -0.56, 0.81, -0.20, -28.77, -12.74, 2.73
24458, -0.54, 0.81, -0.15, -16.31, -14.56, 3.99
24459, -0.53, 0.81, -0.14, -5.18, -7.98, 5.04
24460, -0.52, 0.82, -0.15, 3.15, -0.07, 2.38
24461, -0.53, 0.83, -0.17, 7.98, 0.98, 0.91
24462, -0.54, 0.82, -0.18, 8.54, 0.28, -0.56
24463, -0.56, 0.84, -0.20, 5.95, -4.83, 0.28
24464, -0.55, 0.82, -0.17, 7.35, -8.12, 2.03
24465, -0.54, 0.84, -0.19, 5.88, -6.93, 3.08
24466, -0.53, 0.84, -0.18, 4.76, -4.41, 2.10
24467, -0.51, 0.81, -0.17, 4.69, -3.99, 0.00
24468, -0.54, 0.85, -0.20, 2.94, 1.96, -0.84
24469, -0.53, 0.80, -0.15, 3.36, 0.49, -1.68
24470, -0.55, 0.85, -0.21, -2.80, 6.16, -3.36
24471, -0.54, 0.83, -0.19, -4.13, 4.90, -2.38
24472, -0.53, 0.81, -0.18, -7.98, 5.53, -3.43
24473, -0.55, 0.84, -0.20, -4.62, 8.19, -1.26
24474, -0.54, 0.81, -0.17, -4.27, 5.81, -1.54
24475, -0.56, 0.83, -0.20, -6.02, 8.05, -0.56
24476, -0.56, 0.83, -0.20, -7.49, 3.57, 2.45
24477, -0.54, 0.82, -0.18, -8.40, 0.63, 4.34
24478, -0.53, 0.83, -0.16, -4.76, 1.89, 3.43
24479, -0.52, 0.82, -0.15, 0.98, 5.74, 1.47
24480, -0.52, 0.83, -0.17, 6.72, 11.62, -0.63
24481, -0.54, 0.84, -0.20, 4.62, 12.18, -2.80
24482, -0.54, 0.83, -0.19, 2.80, 9.80, -3.43
24483, -0.54, 0.83, -0.20, 1.68, 7.84, -3.50
24484, -0.54, 0.83, -0.21, 1.12, 6.16, -3.92
24485, -0.54, 0.82, -0.19, 1.05, 5.32, -3.22
24486, -0.55, 0.82, -0.20, 1.75, 3.50, -1.47
24487, -0.54, 0.82, -0.20, 1.82, 2.45, -0.70
24488, -0.53, 0.82, -0.19, 3.01, 2.24, -0.70
24489, -0.54, 0.83, -0.21, 2.52, 3.64, -1.33
24490, -0.54, 0.82, -0.20, 2.31, 3.92, -1.12
24491, -0.53, 0.82, -0.20, 3.36, 5.81, -2.73
24492, -0.54, 0.83, -0.21, 2.52, 6.65, -3.85
24493, -0.54, 0.82, -0.20, 2.38, 7.21, -3.29
24494, -0.55, 0.82, -0.21, 2.10, 6.02, -2.31
24495, -0.56, 0.82, -0.22, 0.91, 3.01, -0.77
24496, -0.54, 0.82, -0.21, 1.68, 1.75, 0.42
24497, -0.53, 0.81, -0.20, 3.50, 2.80, -0.77
24498, -0.54, 0.83, -0.22, 3.78, 3.29, -1.96
24499, -0.55, 0.82, -0.22, 2.73, 3.15, -1.33
24500, -0.55, 0.82, -0.22, 2.94, 1.82, -0.49
24501, -0.55, 0.82, -0.22, 1.96, 1.68, 0.07
24502, -0.54, 0.82, -0.22, 1.54, 1.89, 0.35
24503, -0.55, 0.82, -0.23, 1.19, 0.35, 0.14
24504, -0.54, 0.82, -0.22, 1.05, -1.05, 0.35
24505, -0.54, 0.82, -0.22, 0.56, -0.49, -0.21
24506, -0.54, 0.82, -0.22, 1.12, -0.70, -0.42
24507, -0.55, 0.82, -0.23, 0.35, -1.68, -0.07
24508, -0.54, 0.82, -0.22, -0.77, -1.89, 0.49
24509, -0.54, 0.82, -0.22, -2.10, -0.56, 0.56
24510, -0.54, 0.82, -0.22, -2.38, -1.47, 0.63
24511, -0.54, 0.82, -0.21, -1.82, -2.17, 0.07
24512, -0.54, 0.82, -0.21, 0.63, -1.26, -0.07
24513, -0.54, 0.82, -0.21, 1.68, -0.21, -0.14
24514, -0.54, 0.82, -0.22, 2.73, 0.00, -0.21
24515, -0.54, 0.82, -0.22, 2.17, 0.21, -0.28
24516, -0.54, 0.81, -0.22, 1.75, -1.47, 0.07
24517, -0.54, 0.82, -0.22, 2.03, -1.61, 0.00
24518, -0.54, 0.82, -0.22, 2.45, 0.07, -0.49
24519, -0.54, 0.81, -0.22, 2.59, 1.54, -0.49
24520, -0.55, 0.83, -0.23, 1.61, 0.70, -0.42
24521, -0.54, 0.81, -0.22, 1.19, 1.12, -0.07
24522, -0.54, 0.81, -0.22, 1.96, 0.84, -0.35
24523, -0.55, 0.82, -0.23, 1.96, 1.19, -0.35
24524, -0.54, 0.81, -0.22, 1.61, 1.12, 0.00
24525, -0.54, 0.81, -0.22, 2.87, 1.96, -0.21
24526, -0.54, 0.81, -0.23, 2.73, 1.96, 0.21
24527, -0.54, 0.81, -0.22, 1.68, 2.24, 0.21
24528, -0.54, 0.81, -0.23, 2.24, 1.40, 0.07
24529, -0.55, 0.82, -0.24, 1.12, 0.98, 0.91
24530, -0.54, 0.81, -0.23, -2.24, 0.91, 1.05
24531, -0.55, 0.81, -0.23, -4.13, -1.40, 2.87
24532, -0.55, 0.82, -0.24, -7.21, -2.87, 5.53
24533, -0.53, 0.82, -0.22, -10.57, -1.05, 6.51
24534, -0.53, 0.82, -0.20, -10.92, 0.49, 6.09
24535, -0.53, 0.83, -0.21, -9.38, 5.11, 4.34
24536, -0.53, 0.83, -0.22, -13.09, 4.83, 2.03
24537, -0.55, 0.81, -0.20, -11.48, 5.74, 3.57
24538, -0.55, 0.83, -0.21, -9.17, 3.64, 5.88
24539, -0.52, 0.83, -0.20, -10.15, 4.62, 3.99
24540, -0.51, 0.82, -0.19, -6.65, 8.96, 1.26
24541, -0.53, 0.84, -0.21, -9.66, 8.75, -0.70
24542, -0.53, 0.83, -0.19, -11.55, 7.98, 0.98
24543, -0.53, 0.84, -0.21, -9.73, 4.27, 2.59
24544, -0.54, 0.84, -0.20, -13.16, -1.05, 5.88
24545, -0.51, 0.81, -0.17, -13.30, -5.04, 5.74
24546, -0.52, 0.84, -0.18, -2.94, -7.63, 4.55
24547, -0.50, 0.84, -0.17, -0.91, -4.06, 2.31
24548, -0.52, 0.84, -0.18, 3.22, -4.27, 0.98
24549, -0.52, 0.86, -0.18, 3.43, -2.38, 1.54
24550, -0.49, 0.83, -0.15, 3.50, 0.35, 0.42
24551, -0.52, 0.86, -0.21, 3.15, 2.17, -0.28
24552, -0.51, 0.85, -0.18, 1.19, 3.92, -1.05
24553, -0.51, 0.83, -0.18, 0.98, 4.62, -1.19
24554, -0.51, 0.86, -0.19, -2.52, 12.60, 0.63
24555, -0.50, 0.83, -0.16, -10.08, 22.12, 2.45
24556, -0.53, 0.87, -0.23, -13.72, 22.82, 4.48
24557, -0.51, 0.88, -0.22, -29.40, 18.55, 6.02
24558, -0.47, 0.88, -0.19, -55.23, 25.27, 10.92
24559, -0.44, 0.89, -0.17, -108.99, 45.99, -3.71
24560, -0.48, 0.88, -0.13, -117.39, 66.22, 14.91
24561, -0.46, 0.86, -0.11, -124.18, 59.78, 2.03
24562, -0.54, 0.83, -0.06, -70.07, 28.70, -8.19
24563, -0.54, 0.85, -0.06, -56.63, 16.94, -3.57
24564, -0.52, 0.85, -0.04, -49.70, 11.97, 5.32
24565, -0.50, 0.85, -0.01, -39.62, 7.21, 8.40
24566, -0.49, 0.87, 0.01, -31.99, 6.58, 9.52
24567, -0.49, 0.86, 0.02, -24.99, 5.67, 8.05
24568, -0.50, 0.87, 0.00, -9.17, -1.68, 9.80
24569, -0.48, 0.88, 0.02, -12.11, -2.38, 14.07
24570, -0.48, 0.87, 0.02, -1.68, -7.84, 15.19
24571, -0.45, 0.89, 0.02, -1.89, -9.38, 14.00
24572, -0.46, 0.92, 0.01, -0.21, -11.62, 8.05
24573, -0.45, 0.91, -0.01, -5.74, -11.90, 7.00
24574, -0.46, 0.89, 0.03, -7.07, -13.44, 8.89
24575, -0.49, 0.93, 0.02, -1.47, -19.81, 10.22
24576, -0.49, 0.86, 0.05, 1.33, -27.09, 17.57
24577, -0.46, 0.86, 0.08, 13.37, -37.38, 25.76
24578, -0.42, 0.88, 0.08, 16.38, -39.83, 28.56
24579, -0.44, 0.88, 0.07, 34.16, -52.50, 25.13
24580, -0.40, 0.89, 0.06, 51.59, -56.21, 26.88
24581, -0.37, 0.92, 0.03, 52.57, -35.63, 19.53
24582, -0.32, 0.97, 0.03, 33.60, -30.73, 12.88
24583, -0.30, 0.96, 0.03, 15.82, -3.08, 3.01
24584, -0.38, 0.98, -0.02, 11.48, 7.84, -2.66
24585, -0.43, 0.96, 0.02, 4.27, 8.75, -0.21
24586, -0.35, 0.88, -0.04, -1.47, 0.70, 5.11
24587, -0.39, 0.97, -0.01, -8.26, 5.88, 5.60
24588, -0.35, 0.94, 0.01, -12.81, 12.74, 5.18
24589, -0.38, 0.95, -0.04, -22.12, 17.01, 7.77
24590, -0.37, 0.99, -0.01, -52.71, 27.02, 7.77
24591, -0.39, 0.94, 0.04, -43.75, 23.94, 13.37
24592, -0.29, 0.97, 0.06, -62.37, 47.11, 3.57
24593, -0.28, 0.95, 0.09, -71.89, 68.25, 4.97
24594, -0.41, 0.96, 0.09, -62.72, 52.64, -13.02
24595, -0.39, 0.85, 0.02, -53.62, 35.84, -13.65
24596, -0.44, 0.92, 0.09, -32.34, 15.47, 0.42
24597, -0.41, 0.90, 0.15, -33.60, 11.41, 3.92
24598, -0.41, 0.89, 0.13, -21.49, 1.61, 8.26
24599, -0.39, 0.88, 0.15, -12.95, -6.44, 5.46
24600, -0.40, 0.90, 0.17, -5.25, -13.16, 2.24
24601, -0.37, 0.89, 0.16, -1.19, -14.14, 2.73
24602, -0.37, 0.88, 0.19, 4.76, -15.68, 1.33
24603, -0.37, 0.93, 0.17, 5.32, -13.16, 1.96
24604, -0.35, 0.91, 0.17, 12.25, -9.59, -0.21
24605, -0.37, 0.90, 0.17, 11.69, -10.99, -1.19
24606, -0.39, 0.95, 0.13, 15.05, -8.75, 2.10
24607, -0.35, 0.96, 0.12, 10.99, -9.80, -7.07
24608, -0.39, 0.91, 0.12, 14.21, -16.03, -8.68
24609, -0.41, 0.91, 0.17, 13.93, -22.12, -2.59
24610, -0.38, 0.88, 0.18, 26.67, -23.94, 0.56
24611, -0.36, 0.88, 0.14, 30.66, -22.68, 1.47
24612, -0.37, 0.92, 0.13, 37.80, -29.68, -6.30
24613, -0.41, 0.92, 0.09, 51.17, -42.28, -12.04
24614, -0.41, 0.89, 0.10, 66.99, -62.65, -5.88
24615, -0.38, 0.89, 0.10, 73.78, -60.90, 2.87
24616, -0.34, 0.92, 0.08, 73.15, -48.58, 5.95
24617, -0.31, 0.98, 0.03, 61.67, -36.68, -3.01
24618, -0.31, 0.94, 0.03, 24.71, -6.72, -16.24
24619, -0.37, 0.94, 0.01, 24.99, 2.80, -20.02
24620, -0.40, 0.94, -0.01, 19.11, 4.62, -18.55
24621, -0.39, 0.93, -0.02, 15.82, 5.88, -14.14
24622, -0.44, 0.97, -0.06, 7.21, 6.02, -9.10
24623, -0.42, 0.94, -0.03, -1.82, 8.96, -2.73
24624, -0.41, 0.91, -0.03, -4.62, 5.67, -1.68
24625, -0.41, 0.95, -0.04, -10.92, 6.72, 2.10
24626, -0.39, 0.93, -0.00, -30.66, 9.31, 0.98
24627, -0.39, 0.95, 0.00, -46.06, 29.26, 4.34
24628, -0.43, 0.93, 0.01, -43.19, 18.90, -1.75
24629, -0.40, 0.91, 0.03, -27.09, 9.03, -2.03
24630, -0.39, 0.93, 0.04, -30.73, 10.92, -6.23
24631, -0.41, 0.91, 0.07, -25.69, 11.62, -8.47
24632, -0.43, 0.89, 0.07, -13.30, 5.95, -6.44
24633, -0.43, 0.89, 0.07, -3.85, 0.91, -1.68
24634, -0.42, 0.89, 0.09, 2.73, -2.59, 2.03
24635, -0.42, 0.91, 0.08, 10.85, -3.57, 4.06
24636, -0.41, 0.90, 0.07, 14.42, -5.74, 3.15
24637, -0.41, 0.91, 0.05, 17.15, -7.14, 2.10
24638, -0.43, 0.94, 0.03, 14.63, -10.99, -0.14
24639, -0.41, 0.93, 0.04, 13.44, -17.85, -2.45
24640, -0.41, 0.90, 0.05, 18.41, -22.96, -4.76
24641, -0.41, 0.90, 0.06, 21.49, -21.00, -4.06
24642, -0.41, 0.89, 0.07, 31.36, -16.94, 0.91
24643, -0.42, 0.89, 0.06, 43.40, -21.28, 5.18
24644, -0.39, 0.93, -0.01, 37.66, -20.37, 2.94
24645, -0.40, 0.96, -0.00, 25.13, -17.29, -4.06
24646, -0.40, 0.90, 0.00, 30.03, -14.21, -5.18
24647, -0.41, 0.91, -0.00, 26.18, -16.87, -7.91
24648, -0.41, 0.92, -0.00, 25.62, -12.25, -12.81
24649, -0.39, 0.90, -0.01, 28.84, -1.75, -17.85
24650, -0.41, 0.93, -0.05, 26.18, 9.87, -19.81
24651, -0.46, 0.93, -0.07, 16.80, 12.25, -16.59
24652, -0.47, 0.91, -0.09, 11.20, 10.01, -11.20
24653, -0.45, 0.90, -0.06, 2.59, 9.66, -6.72
24654, -0.44, 0.92, -0.08, -2.45, 14.63, -5.25
24655, -0.47, 0.91, -0.09, -9.45, 12.46, -2.10
24656, -0.49, 0.90, -0.10, -15.61, 6.16, 4.48
24657, -0.45, 0.90, -0.07, -24.08, 4.90, 10.57
24658, -0.46, 0.91, -0.06, -23.94, 1.40, 8.54
24659, -0.41, 0.91, -0.02, -34.93, 7.21, 4.90
24660, -0.42, 0.91, -0.01, -39.97, 24.57, 6.86
24661, -0.44, 0.91, -0.01, -32.27, 17.85, 2.73
24662, -0.43, 0.88, 0.01, -21.07, 13.16, -0.84
24663, -0.44, 0.91, 0.01, -13.16, 11.48, -1.33
24664, -0.45, 0.88, 0.03, -7.35, 11.20, -4.34
24665, -0.45, 0.87, -0.01, 4.55, 4.62, -2.03
24666, -0.45, 0.92, -0.02, 6.09, -0.77, -0.63
24667, -0.45, 0.88, 0.04, 7.98, -4.97, -0.14
24668, -0.45, 0.90, -0.02, 19.39, -5.25, 6.30
24669, -0.43, 0.93, -0.04, 9.94, -4.83, 2.24
24670, -0.43, 0.91, -0.02, -4.13, -14.21, -8.19
24671, -0.46, 0.89, -0.01, 7.77, -17.50, -7.84
24672, -0.46, 0.85, 0.05, 23.17, -14.42, 0.28
24673, -0.43, 0.87, 0.00, 38.15, -8.19, 7.14
24674, -0.41, 0.94, -0.04, 19.25, 1.47, -2.52
24675, -0.45, 0.92, -0.06, 15.68, -1.12, -9.66
24676, -0.46, 0.89, -0.05, 16.94, -9.80, -8.05
24677, -0.47, 0.91, -0.05, 17.36, -12.81, -6.79
24678, -0.44, 0.88, -0.02, 14.07, -10.43, -6.09
24679, -0.44, 0.90, -0.05, 18.55, -5.25, -8.05
24680, -0.45, 0.90, -0.05, 17.36, 1.47, -9.87
24681, -0.45, 0.90, -0.08, 12.11, 6.44, -10.85
24682, -0.49, 0.89, -0.09, 8.05, 6.65, -6.72
24683, -0.50, 0.90, -0.10, 1.54, 3.29, -0.28
24684, -0.46, 0.88, -0.08, -6.02, 2.38, 3.99
24685, -0.47, 0.89, -0.07, -7.42, 6.16, 4.62
24686, -0.47, 0.89, -0.08, -8.05, 6.51, 5.67
24687, -0.47, 0.90, -0.09, -15.26, 5.32, 8.68
24688, -0.47, 0.90, -0.07, -17.50, 1.96, 10.15
24689, -0.45, 0.90, -0.06, -21.00, 0.84, 9.31
24690, -0.44, 0.91, -0.04, -24.92, 5.95, 5.46
24691, -0.44, 0.90, -0.02, -25.48, 11.27, 2.31
24692, -0.43, 0.90, -0.02, -21.35, 11.97, -2.52
24693, -0.45, 0.89, -0.00, -17.50, 11.34, -6.30
24694, -0.48, 0.86, -0.01, 0.98, 5.11, -3.50
24695, -0.46, 0.89, -0.03, 2.38, 2.38, 2.52
24696, -0.46, 0.91, -0.03, -0.07, 3.08, 0.70
24697, -0.48, 0.88, -0.03, 4.90, -5.67, 2.45
24698, -0.45, 0.88, -0.02, 10.92, -7.56, 5.60
24699, -0.44, 0.92, -0.04, 9.38, -4.27, 0.35
24700, -0.43, 0.91, -0.05, -2.87, -5.11, -7.28
24701, -0.49, 0.87, -0.03, 11.41, -19.81, -7.63
24702, -0.47, 0.85, 0.01, 29.26, -20.44, -0.84
24703, -0.45, 0.87, -0.03, 36.05, -9.94, 5.88
24704, -0.43, 0.90, -0.05, 17.01, -1.33, -0.14
24705, -0.46, 0.91, -0.07, 17.15, -4.69, -6.93
24706, -0.48, 0.90, -0.07, 18.83, -11.20, -6.37
24707, -0.44, 0.88, -0.05, 17.01, -9.66, -7.00
24708, -0.44, 0.88, -0.05, 19.67, -4.41, -9.80
24709, -0.48, 0.90, -0.08, 18.48, -2.03, -12.39
24710, -0.48, 0.89, -0.09, 16.73, 0.63, -10.71
24711, -0.46, 0.88, -0.08, 12.81, 5.74, -8.33
24712, -0.50, 0.89, -0.11, 9.17, 6.44, -5.46
24713, -0.50, 0.90, -0.12, 1.89, 6.23, -1.61
24714, -0.47, 0.88, -0.10, -5.11, 7.14, 0.63
24715, -0.50, 0.87, -0.11, -7.98, 7.84, 3.50
24716, -0.52, 0.90, -0.12, -12.39, 2.59, 8.26
24717, -0.48, 0.89, -0.10, -23.31, 1.82, 12.88
24718, -0.47, 0.89, -0.09, -25.06, 0.63, 10.92
24719, -0.47, 0.89, -0.07, -23.94, 2.10, 8.68
24720, -0.45, 0.88, -0.05, -24.22, 7.49, 8.33
24721, -0.45, 0.89, -0.05, -26.18, 10.15, 5.32
24722, -0.46, 0.89, -0.02, -21.42, 11.76, 0.77
24723, -0.46, 0.87, -0.04, -8.61, 9.17, -0.49
24724, -0.46, 0.88, -0.03, -2.10, 7.14, 0.07
24725, -0.48, 0.90, -0.04, 6.16, 2.80, -0.63
24726, -0.46, 0.89, -0.05, 2.03, 2.52, 0.56
24727, -0.47, 0.89, -0.05, 3.29, -0.28, 0.35
24728, -0.47, 0.89, -0.04, 8.89, -4.97, 1.05
24729, -0.45, 0.91, -0.06, 5.74, -2.59, -1.12
24730, -0.46, 0.90, -0.06, -1.47, -3.36, -2.10
24731, -0.49, 0.89, -0.04, 5.88, -12.67, -3.43
24732, -0.47, 0.88, -0.03, 15.12, -14.56, -1.12
24733, -0.44, 0.87, -0.02, 22.61, -5.32, -2.59
24734, -0.45, 0.89, -0.06, 17.57, 3.01, -4.13
24735, -0.47, 0.90, -0.07, 20.44, -0.21, -9.03
24736, -0.49, 0.89, -0.10, 13.30, -5.25, -10.43
24737, -0.50, 0.88, -0.09, 10.85, -12.67, -4.06
24738, -0.48, 0.88, -0.07, 14.07, -15.54, -1.54
24739, -0.46, 0.88, -0.06, 12.74, -10.71, -3.78
24740, -0.46, 0.88, -0.07, 14.91, -5.67, -6.37
24741, -0.48, 0.89, -0.08, 13.86, -3.92, -8.68
24742, -0.45, 0.88, -0.10, 9.45, 5.04, -8.26
24743, -0.51, 0.89, -0.12, 7.07, 9.87, -7.49
24744, -0.53, 0.88, -0.13, -0.63, 5.04, -1.40
24745, -0.48, 0.85, -0.10, -10.71, 3.36, 4.06
24746, -0.51, 0.89, -0.11, -11.48, 6.93, 5.95
24747, -0.50, 0.87, -0.07, -14.00, 2.10, 8.33
24748, -0.49, 0.89, -0.11, -16.03, 3.71, 10.50
24749, -0.48, 0.89, -0.08, -18.06, 5.11, 10.22
24750, -0.47, 0.88, -0.07, -25.13, 2.59, 8.89
24751, -0.48, 0.90, -0.08, -20.79, 2.66, 8.82
24752, -0.45, 0.89, -0.04, -27.72, 4.27, 6.93
24753, -0.44, 0.87, -0.02, -17.36, 8.68, 2.94
24754, -0.46, 0.89, -0.03, -16.59, 12.95, -0.07
24755, -0.46, 0.87, -0.02, -11.76, 14.07, -1.19
24756, -0.48, 0.88, -0.05, -2.38, 7.42, 0.21
24757, -0.49, 0.88, -0.05, 3.71, 3.50, 1.68
24758, -0.48, 0.89, -0.05, -1.75, -2.73, 2.10
24759, -0.48, 0.89, -0.04, 1.61, -5.11, 3.08
24760, -0.46, 0.90, -0.05, 4.20, -4.83, 4.06
24761, -0.45, 0.90, -0.05, -5.88, -5.11, 2.24
24762, -0.47, 0.89, -0.03, 0.98, -14.07, -1.12
24763, -0.45, 0.88, -0.01, 1.26, -12.18, 0.49
24764, -0.45, 0.88, 0.12, 10.08, -8.19, -0.56
24765, -0.47, 0.88, -0.02, 21.70, -5.04, -0.42
24766, -0.45, 0.88, -0.04, 17.57, -4.20, -2.80
24767, -0.48, 0.89, -0.07, 17.36, -9.38, -5.39
24768, -0.49, 0.89, -0.05, 18.76, -16.94, -4.13
24769, -0.51, 0.84, -0.03, 40.39, -27.65, 5.11
24770, -0.43, 0.90, -0.07, 16.59, -17.50, -0.14
24771, -0.46, 0.91, -0.07, 12.53, -4.13, -2.94
24772, -0.47, 0.88, -0.06, 12.25, -3.29, -3.92
24773, -0.46, 0.89, -0.07, 13.09, 0.35, -2.87
24774, -0.47, 0.90, -0.07, 8.05, 6.44, -2.80
24775, -0.46, 0.89, -0.09, 3.57, 13.02, -3.15
24776, -0.48, 0.89, -0.10, -3.43, 20.02, 0.42
24777, -0.50, 0.90, -0.11, -6.58, 23.10, 2.24
24778, -0.49, 0.90, -0.13, -15.89, 15.47, 4.62
24779, -0.48, 0.90, -0.10, -26.25, 6.09, 5.67
24780, -0.47, 0.91, -0.10, -28.14, 5.46, 3.08
24781, -0.44, 0.91, -0.07, -58.24, 14.63, -2.03
24782, -0.46, 0.87, -0.01, -40.39, 18.97, 2.24
24783, -0.48, 0.87, -0.02, -32.20, 12.32, 3.64
24784, -0.48, 0.87, -0.00, -21.00, 5.95, 3.22
24785, -0.47, 0.85, 0.02, -3.92, 2.24, 3.64
24786, -0.45, 0.89, -0.02, 3.57, 2.24, 2.87
24787, -0.47, 0.90, -0.02, 1.33, 3.78, 0.91
24788, -0.47, 0.89, -0.03, 3.50, -1.61, -0.14
24789, -0.47, 0.89, -0.02, 4.83, -7.84, -0.35
24790, -0.47, 0.88, -0.00, 15.89, -11.55, -0.70
24791, -0.46, 0.86, -0.12, 21.21, -7.70, 0.00
24792, -0.46, 0.88, -0.04, 27.65, -8.33, 0.70
24793, -0.47, 0.92, -0.07, 20.37, -13.58, -1.89
24794, -0.47, 0.89, -0.05, 17.92, -19.60, -2.73
24795, -0.45, 0.86, -0.02, 32.27, -23.24, -0.56
24796, -0.42, 0.91, -0.06, 26.74, -13.58, -10.29
24797, -0.46, 0.90, -0.06, 20.79, -5.95, -12.25
24798, -0.49, 0.88, -0.07, 21.07, -0.91, -10.01
24799, -0.48, 0.88, -0.08, 22.82, -0.14, -8.68
24800, -0.48, 0.91, -0.10, 9.66, 6.23, -6.44
24801, -0.48, 0.87, -0.10, 5.04, 9.31, -5.53
24802, -0.50, 0.89, -0.12, -1.96, 9.66, -0.84
24803, -0.51, 0.89, -0.10, -13.86, 13.51, 5.88
24804, -0.49, 0.99, -0.10, -14.84, 8.47, 7.28
24805, -0.50, 0.90, -0.12, -21.28, 5.88, 8.47
24806, -0.48, 0.89, -0.08, -22.40, 1.05, 6.79
24807, -0.45, 0.88, -0.08, -28.07, 2.52, 4.48
24808, -0.49, 0.91, -0.07, -36.33, 4.48, 3.92
24809, -0.48, 0.86, -0.02, -32.34, 4.27, 3.64
24810, -0.46, 0.86, -0.02, -19.18, 1.68, 3.50
24811, -0.49, 0.86, -0.00, -6.58, 0.70, -0.07
24812, -0.47, 0.87, -0.00, 1.12, 0.91, 1.68
24813, -0.47, 0.89, -0.04, 3.71, 2.87, 1.54
24814, -0.49, 0.89, -0.03, 8.12, -1.26, 1.47
24815, -0.46, 0.88, -0.02, 7.21, -5.04, -0.91
24816, -0.46, 0.90, -0.06, 6.37, -4.55, -3.99
24817, -0.48, 0.90, -0.03, 5.67, -6.93, -4.97
24818, -0.49, 0.86, -0.02, 10.29, -13.16, -4.06
24819, -0.49, 0.85, -0.02, 27.16, -14.98, 1.89
24820, -0.47, 0.87, -0.04, 30.52, -16.38, 3.71
24821, -0.46, 0.91, -0.07, 21.42, -13.58, -2.52
24822, -0.48, 0.91, -0.07, 19.60, -11.69, -6.86
24823, -0.48, 0.87, -0.05, 16.73, -11.20, -6.65
24824, -0.47, 0.86, -0.07, 17.92, -12.39, -5.67
24825, -0.50, 0.89, -0.07, 18.76, -9.73, -4.55
24826, -0.49, 0.88, -0.07, 17.08, -6.86, -3.92
24827, -0.48, 0.88, -0.07, 17.01, -2.10, -6.44
24828, -0.49, 0.90, -0.10, 9.80, 4.41, -3.15
24829, -0.50, 0.89, -0.10, 2.66, 7.28, -1.68
24830, -0.49, 0.87, -0.10, -5.25, 5.88, 2.17
24831, -0.49, 0.89, -0.10, -10.29, 8.05, 4.83
24832, -0.48, 0.90, -0.10, -13.37, 9.45, 5.81
24833, -0.49, 0.89, -0.10, -18.20, 7.49, 4.90
24834, -0.50, 0.89, -0.10, -22.33, 3.50, 5.60
24835, -0.50, 0.88, -0.07, -24.57, -0.98, 5.39
24836, -0.49, 0.88, -0.05, -22.40, -3.99, 3.43
24837, -0.49, 0.88, -0.06, -22.47, -8.26, 6.02
24838, -0.47, 0.86, -0.02, -11.83, -10.22, 6.72
24839, -0.48, 0.87, -0.02, -1.33, -16.94, 3.15
24840, -0.47, 0.88, -0.02, 7.07, -20.37, 1.68
24841, -0.46, 0.85, 0.00, 15.75, -17.29, 1.82
24842, -0.49, 0.85, -0.01, 34.65, -15.82, 8.12
24843, -0.44, 0.89, -0.03, 31.92, -8.12, 8.40
24844, -0.41, 0.91, -0.04, 24.78, 6.23, -6.37
24845, -0.47, 0.90, -0.09, 22.26, 13.51, -10.08
24846, -0.49, 0.90, -0.10, 13.30, 13.51, -8.40
24847, -0.48, 0.89, -0.10, 4.97, 11.97, -5.67
24848, -0.50, 0.87, -0.11, 1.40, 3.99, -2.52
24849, -0.49, 0.90, -0.11, -8.47, 3.43, 0.63
24850, -0.49, 0.89, -0.10, -12.46, -0.49, 1.12
24851, -0.48, 0.88, -0.09, -17.22, -1.89, 0.91
24852, -0.48, 0.88, -0.06, -19.39, -0.91, 0.00
24853, -0.48, 0.86, -0.04, -5.74, -3.50, 2.24
24854, -0.44, 0.87, -0.04, 0.84, 2.24, -0.14
24855, -0.48, 0.88, -0.06, 6.65, 5.95, -3.57
24856, -0.51, 0.89, -0.09, 6.23, 3.22, -0.21
24857, -0.47, 0.87, -0.07, 3.01, -1.12, 0.63
24858, -0.48, 0.88, -0.07, 5.11, -2.03, -0.91
24859, -0.49, 0.89, -0.07, 6.51, -2.17, -0.70
24860, -0.47, 0.87, -0.07, 7.84, -2.73, -1.12
24861, -0.48, 0.88, -0.08, 7.70, -2.38, -1.68
24862, -0.50, 0.89, -0.09, 4.34, -4.55, -0.49
24863, -0.48, 0.87, -0.07, 4.69, -6.37, -0.07
24864, -0.48, 0.88, -0.08, 5.04, -5.81, -0.28
24865, -0.49, 0.89, -0.08, 3.92, -3.43, -1.40
24866, -0.47, 0.87, -0.07, 3.78, -2.31, -1.89
24867, -0.49, 0.75, -0.08, 5.25, -2.52, -1.47
24868, -0.49, 0.88, -0.08, 3.99, -4.13, -0.56
24869, -0.46, 0.87, -0.06, 3.92, -3.22, -1.82
24870, -0.48, 0.89, -0.10, 4.97, -0.84, -6.23
24871, -0.51, 0.87, -0.08, 4.13, -8.82, -4.48
24872, -0.50, 0.87, -0.07, 6.65, -10.15, -1.75
24873, -0.50, 0.86, -0.08, 9.03, -8.89, -0.70
24874, -0.49, 0.87, -0.07, 11.13, -7.21, -0.42
24875, -0.49, 0.87, -0.09, 10.50, -5.18, -2.45
24876, -0.49, 0.88, -0.11, 9.94, -4.62, -4.83
24877, -0.52, 0.87, -0.10, 8.68, -7.91, -3.99
24878, -0.49, 0.86, -0.08, 6.44, -6.79, -1.82
24879, -0.49, 0.86, -0.09, 9.73, -5.04, -2.73
24880, -0.49, 0.89, -0.09, 9.45, 2.10, -4.62
24881, -0.46, 0.86, -0.10, 3.15, 9.73, -5.11
24882, -0.53, 0.88, -0.14, 2.73, 10.29, -4.27
24883, -0.51, 0.86, -0.10, -3.29, 9.87, 0.21
24884, -0.51, 0.87, -0.13, -9.66, 9.38, 4.34
24885, -0.52, 0.88, -0.13, -15.05, 6.16, 6.30
24886, -0.52, 0.87, -0.11, -22.82, -1.68, 8.19
24887, -0.51, 0.88, -0.10, -20.79, -5.88, 10.43
24888, -0.48, 0.88, -0.08, -24.08, -4.90, 9.10
24889, -0.47, 0.85, -0.04, -18.48, -3.43, 3.78
