t,ax,ay,az,gx,gy,gz
12128, 0.27, 0.17, 0.98, 1.12, -15.47, 9.52
12129, 0.30, 0.11, 0.98, 4.34, -15.96, 4.06
12130, 0.30, 0.10, 0.97, 7.84, -13.09, -0.91
12131, 0.29, 0.09, 0.98, 7.91, -12.88, -4.76
12132, 0.30, 0.12, 0.97, 3.99, -11.83, -4.83
12133, 0.32, 0.17, 0.97, 5.81, -12.67, 0.28
12134, 0.30, 0.15, 0.95, 3.22, -13.02, 3.01
12135, 0.32, 0.12, 0.94, 2.10, -15.96, 0.77
12136, 0.37, 0.12, 0.95, 5.46, -13.79, -2.66
12137, 0.38, 0.12, 0.95, 9.45, -7.70, -6.72
12138, 0.38, 0.17, 0.96, 6.23, 2.80, -6.23
12139, 0.36, 0.17, 0.96, 3.01, 10.15, -4.27
12140, 0.33, 0.16, 0.95, 0.77, 13.51, -1.33
12141, 0.30, 0.14, 0.96, -0.98, 9.80, -0.63
12142, 0.30, 0.15, 0.97, -3.92, 9.24, -1.40
12143, 0.29, 0.14, 0.98, -5.25, 10.50, -1.54
12144, 0.30, 0.17, 0.97, -4.27, 14.35, 1.12
12145, 0.24, 0.14, 0.97, -1.33, 3.71, 0.14
12146, 0.26, 0.18, 0.97, -5.18, 7.49, 1.89
12147, 0.23, 0.18, 0.95, -4.62, -2.80, 5.11
12148, 0.25, 0.17, 0.96, -5.46, -9.38, 5.88
12149, 0.30, 0.16, 0.97, -2.66, -11.48, 3.22
12150, 0.31, 0.13, 0.97, -1.12, -9.59, 3.92
12151, 0.35, 0.13, 0.97, 1.26, -2.94, 3.85
12152, 0.36, 0.13, 0.97, 1.61, 5.74, 1.19
12153, 0.31, 0.12, 0.95, -0.77, 6.44, -0.42
12154, 0.32, 0.14, 0.97, -7.49, 10.78, -0.07
12155, 0.29, 0.11, 0.98, -3.36, 3.43, 0.49
12156, 0.30, 0.09, 0.96, -3.01, 6.79, 0.21
12157, 0.28, 0.10, 0.98, -0.56, 0.70, 2.03
12158, 0.27, 0.14, 0.97, -6.93, 2.38, 4.48
12159, 0.25, 0.15, 0.98, -6.30, -1.47, 7.49
12160, 0.24, 0.13, 0.98, -5.60, -9.03, 4.27
12161, 0.28, 0.12, 0.98, -4.34, -7.07, 1.12
12162, 0.32, 0.13, 0.98, -1.26, -1.05, -0.07
12163, 0.31, 0.14, 0.97, 1.89, 2.31, 1.82
12164, 0.28, 0.14, 0.97, 1.19, 2.80, 1.82
12165, 0.27, 0.14, 0.97, -0.77, -2.87, -0.07
12166, 0.28, 0.13, 0.98, -3.78, -3.15, -0.91
12167, 0.29, 0.11, 0.97, -3.50, -5.04, -1.54
12168, 0.30, 0.10, 0.96, -2.31, -2.80, -0.56
12169, 0.30, 0.09, 0.98, -1.40, -4.90, -0.91
12170, 0.29, 0.10, 0.98, -0.77, -2.66, 0.14
12171, 0.29, 0.12, 0.98, 0.98, -3.22, 1.33
12172, 0.28, 0.12, 0.97, 1.33, -4.41, 1.68
12173, 0.28, 0.13, 0.98, 0.77, -4.06, 2.80
12174, 0.28, 0.16, 0.97, 0.84, -5.88, 4.97
12175, 0.29, 0.13, 0.98, 0.84, -9.94, 1.68
12176, 0.31, 0.11, 0.98, 3.36, -7.91, -0.07
12177, 0.30, 0.09, 0.96, 6.37, -5.39, -0.28
12178, 0.30, 0.09, 0.98, 7.14, -8.96, -1.05
12179, 0.31, 0.13, 0.96, 6.16, -7.07, 2.10
12180, 0.30, 0.13, 0.96, 4.62, -11.06, 2.80
12181, 0.31, 0.11, 0.95, 6.16, -12.88, 1.61
12182, 0.34, 0.12, 0.96, 4.06, -12.53, -0.42
12183, 0.37, 0.12, 0.96, 7.42, -6.23, -4.48
12184, 0.38, 0.13, 0.96, 9.17, -0.77, -8.47
12185, 0.38, 0.16, 0.97, 5.18, 11.83, -9.10
12186, 0.33, 0.14, 0.97, 4.27, 13.02, -7.28
12187, 0.33, 0.15, 0.97, -1.05, 18.34, -8.40
12188, 0.31, 0.13, 0.97, 1.54, 15.33, -11.34
12189, 0.28, 0.14, 0.98, -2.17, 17.85, -10.78
12190, 0.28, 0.16, 0.98, -1.96, 19.25, -5.11
12191, 0.21, 0.14, 0.98, -0.56, 7.14, 1.33
12192, 0.22, 0.16, 0.97, -3.22, 3.22, 4.97
12193, 0.24, 0.18, 0.96, -5.04, 0.77, 5.18
12194, 0.24, 0.18, 0.97, -3.36, -6.58, 4.90
12195, 0.25, 0.17, 0.96, -1.54, -9.03, 5.39
12196, 0.26, 0.14, 0.97, 1.96, -14.49, 5.60
12197, 0.30, 0.12, 0.97, 2.03, -11.48, 4.06
12198, 0.35, 0.14, 0.97, 3.15, -1.19, 0.21
12199, 0.34, 0.14, 0.97, 1.89, 4.69, -1.47
12200, 0.30, 0.13, 0.96, -2.66, 6.02, 1.96
12201, 0.28, 0.14, 0.98, -6.93, 3.36, 4.41
12202, 0.27, 0.12, 0.97, -11.27, 0.56, 3.64
12203, 0.29, 0.11, 0.97, -9.87, -1.54, 3.08
12204, 0.28, 0.08, 0.97, -5.39, -4.83, 2.45
12205, 0.31, 0.10, 0.99, -2.45, -0.91, 0.42
12206, 0.29, 0.15, 0.98, -4.83, 5.18, 2.03
12207, 0.25, 0.15, 0.98, -3.43, 0.07, 3.64
12208, 0.24, 0.13, 0.97, -4.55, -3.99, 3.71
12209, 0.26, 0.11, 0.98, -3.29, -5.32, 1.96
12210, 0.29, 0.12, 0.98, -1.89, -2.31, 0.63
12211, 0.30, 0.13, 0.98, -0.07, 0.70, 1.40
12212, 0.27, 0.13, 0.97, -0.14, 0.63, 1.75
12213, 0.27, 0.11, 0.98, -1.54, -4.76, 0.07
12214, 0.28, 0.12, 0.98, -4.13, -1.61, 0.98
12215, 0.27, 0.11, 0.97, -2.38, -7.49, 1.19
12216, 0.28, 0.09, 0.98, -2.94, -7.07, 1.40
12217, 0.30, 0.10, 0.97, -1.40, -4.06, 1.68
12218, 0.30, 0.10, 0.98, -0.07, -3.78, 1.19
12219, 0.29, 0.10, 0.98, 0.70, -3.15, 1.33
12220, 0.28, 0.11, 0.98, 1.33, -2.94, 2.31
12221, 0.28, 0.12, 0.97, -0.70, -4.76, 1.82
12222, 0.28, 0.14, 0.97, -1.05, -4.76, 4.27
12223, 0.28, 0.14, 0.98, 0.84, -6.51, 4.69
12224, 0.30, 0.11, 0.98, 2.38, -10.57, 0.77
12225, 0.31, 0.08, 0.97, 4.06, -3.57, 0.84
12226, 0.29, 0.08, 0.97, 5.67, -5.81, 0.98
12227, 0.28, 0.10, 0.96, 6.02, -7.00, 2.94
12228, 0.29, 0.11, 0.97, 3.85, -12.95, 2.73
12229, 0.32, 0.11, 0.97, 3.78, -12.81, 0.77
12230, 0.34, 0.11, 0.96, 5.39, -11.13, -0.35
12231, 0.37, 0.11, 0.96, 5.46, -4.62, -2.73
12232, 0.37, 0.10, 0.96, 9.94, -2.03, -9.10
12233, 0.38, 0.14, 0.97, 5.67, 11.83, -10.64
12234, 0.34, 0.14, 0.98, 4.83, 14.00, -9.94
12235, 0.31, 0.12, 0.98, 1.47, 35.21, -12.95
12236, 0.31, 0.13, 0.96, 0.91, 22.40, -14.84
12237, 0.29, 0.12, 0.98, 1.54, 16.24, -16.10
12238, 0.28, 0.14, 0.99, -1.40, 24.85, -11.06
12239, 0.19, 0.12, 0.99, 2.10, 15.40, 0.70
12240, 0.21, 0.15, 0.98, -0.35, 11.55, 5.60
12241, 0.23, 0.17, 0.97, -4.34, 14.84, 4.97
12242, 0.21, 0.18, 0.96, -3.85, 7.42, 5.04
12243, 0.19, 0.18, 0.97, -5.11, -0.28, 4.97
12244, 0.20, 0.15, 0.97, -7.07, -8.61, -0.77
12245, 0.24, 0.14, 0.99, -9.31, -9.59, 0.07
12246, 0.25, 0.13, 0.99, -5.88, -12.46, 1.61
12247, 0.26, 0.09, 0.98, -5.46, -12.04, 0.70
12248, 0.27, 0.10, 0.98, -4.27, -5.88, 4.83
12249, 0.24, 0.11, 0.97, -1.75, -10.92, 8.47
12250, 0.24, 0.11, 0.98, 0.00, -15.54, 8.54
12251, 0.26, 0.12, 0.98, -0.91, -16.31, 9.17
12252, 0.29, 0.12, 0.99, -1.96, -15.12, 9.17
12253, 0.30, 0.11, 0.98, 0.07, -10.92, 4.13
12254, 0.28, 0.07, 0.97, 3.57, -13.23, 1.33
12255, 0.29, 0.09, 0.96, 1.96, -7.21, 1.82
12256, 0.29, 0.11, 0.97, 0.14, -14.07, 1.19
12257, 0.31, 0.10, 0.97, 1.75, -13.51, 2.80
12258, 0.33, 0.11, 0.96, 0.07, -10.92, 3.36
12259, 0.35, 0.12, 0.96, 1.68, -6.30, 0.28
12260, 0.35, 0.09, 0.97, 6.58, -5.11, -3.01
12261, 0.35, 0.12, 0.97, 4.27, 3.36, -1.12
12262, 0.34, 0.14, 0.98, 2.45, 7.91, 2.59
12263, 0.31, 0.13, 0.98, 1.05, 8.89, 1.54
12264, 0.32, 0.11, 0.97, -1.89, 11.76, -0.91
12265, 0.28, 0.10, 0.98, -0.84, 11.20, -1.75
12266, 0.27, 0.11, 0.99, -2.52, 11.90, -1.68
12267, 0.25, 0.10, 0.99, 0.84, 4.34, -0.21
12268, 0.27, 0.14, 0.97, -1.68, 7.84, 3.01
12269, 0.24, 0.14, 0.96, -3.43, 2.80, 4.69
12270, 0.25, 0.12, 0.97, -5.18, -4.27, 3.15
12271, 0.29, 0.13, 0.97, -5.74, -3.36, -0.07
12272, 0.31, 0.14, 0.99, -2.17, -0.49, 1.54
12273, 0.28, 0.12, 0.98, 0.42, -2.03, 3.71
12274, 0.28, 0.10, 0.97, -2.03, -3.15, 3.78
12275, 0.27, 0.12, 0.96, -5.39, -3.22, 6.09
12276, 0.26, 0.14, 0.97, -5.60, -9.17, 7.21
12277, 0.26, 0.08, 0.99, -4.83, -16.03, 4.48
12278, 0.30, 0.05, 0.98, -3.99, -14.07, 3.22
12279, 0.35, 0.16, 0.96, -3.22, -1.47, 11.13
12280, 0.26, 0.08, 0.99, 3.57, -12.11, 9.80
12281, 0.29, 0.03, 0.97, 1.68, -14.07, 3.22
12282, 0.31, 0.07, 0.96, 2.59, -8.05, 3.36
12283, 0.33, 0.12, 0.97, 1.19, -2.87, 1.47
12284, 0.31, 0.11, 0.97, 2.31, -7.21, -0.42
12285, 0.30, 0.08, 0.96, 3.36, -13.09, 0.28
12286, 0.34, 0.09, 0.96, 1.89, -10.85, 0.70
12287, 0.36, 0.10, 0.96, 3.36, -7.42, 0.07
12288, 0.37, 0.11, 0.96, 4.48, -2.17, -1.19
12289, 0.34, 0.10, 0.96, 3.50, 2.03, 1.68
12290, 0.33, 0.12, 0.99, -0.63, 5.39, 5.32
12291, 0.34, 0.10, 0.98, -1.05, 6.16, 1.68
12292, 0.34, 0.09, 0.97, -3.22, 12.25, 0.49
12293, 0.32, 0.11, 0.97, -3.36, 15.61, -0.14
12294, 0.29, 0.08, 0.97, -2.87, 12.81, -1.54
12295, 0.26, 0.06, 1.00, -1.96, 12.25, -3.64
12296, 0.26, 0.09, 0.96, 2.45, -0.84, -1.75
12297, 0.27, 0.12, 0.97, -3.29, 10.29, 1.61
12298, 0.26, 0.13, 0.97, -2.03, -0.35, 3.71
12299, 0.25, 0.13, 0.97, -5.39, -2.17, 2.73
12300, 0.27, 0.12, 0.96, -3.22, -9.38, 0.35
12301, 0.28, 0.09, 0.97, -0.91, -10.85, -0.56
12302, 0.32, 0.09, 0.98, -1.26, -11.27, 2.87
12303, 0.32, 0.08, 0.98, -3.01, -5.81, 4.48
12304, 0.34, 0.09, 0.97, -3.43, 0.28, 1.75
12305, 0.33, 0.08, 0.98, -3.08, 1.61, 0.28
12306, 0.30, 0.06, 0.97, -6.79, 3.99, 2.59
12307, 0.30, 0.09, 0.96, -6.37, 3.43, 3.57
12308, 0.29, 0.06, 0.98, -5.88, -2.59, 1.54
12309, 0.30, 0.06, 0.99, -4.62, -0.84, 0.84
12310, 0.29, 0.09, 0.97, -6.23, 2.31, 3.85
12311, 0.26, 0.08, 0.97, -4.27, -2.38, 6.37
12312, 0.26, 0.06, 0.97, -2.80, -5.74, 3.43
12313, 0.29, 0.07, 0.98, -4.48, -4.20, -0.14
12314, 0.31, 0.08, 0.98, -3.29, -2.03, 0.14
12315, 0.31, 0.08, 0.98, -2.94, 0.14, -0.07
12316, 0.30, 0.07, 0.98, -2.59, -0.21, -0.70
12317, 0.30, 0.07, 0.98, -4.20, -0.42, 0.35
12318, 0.28, 0.05, 0.98, -3.57, -3.92, 0.49
12319, 0.29, 0.04, 0.97, -5.11, -6.37, -0.84
12320, 0.31, 0.04, 0.98, -2.94, -4.69, 0.21
12321, 0.31, 0.04, 0.99, -1.89, -3.57, 0.14
12322, 0.31, 0.05, 0.97, -0.35, -1.47, 0.14
12323, 0.30, 0.05, 0.97, 2.45, -2.03, 0.00
12324, 0.30, 0.08, 0.98, 0.98, -0.28, 0.28
12325, 0.29, 0.10, 0.98, 1.19, -1.75, 2.52
12326, 0.28, 0.07, 0.97, 1.26, -6.65, 1.54
12327, 0.32, 0.06, 0.98, 2.38, -7.07, -2.45
12328, 0.32, 0.05, 0.98, 4.83, -2.17, -0.49
12329, 0.30, 0.05, 0.97, 4.62, -2.03, -0.49
12330, 0.30, 0.05, 0.96, 5.81, -3.71, 0.35
12331, 0.30, 0.05, 0.97, 5.53, -6.58, -0.56
12332, 0.29, 0.04, 0.97, 6.09, -10.15, 0.28
12333, 0.33, 0.06, 0.97, 8.54, -11.62, -1.26
12334, 0.38, 0.10, 0.98, 6.72, -0.91, -2.66
12335, 0.34, 0.09, 0.97, 8.33, 2.03, -1.47
12336, 0.32, 0.09, 0.98, 6.65, 6.02, -0.35
12337, 0.32, 0.11, 0.99, 2.66, 9.17, -2.10
12338, 0.30, 0.07, 0.99, 0.56, 8.89, -6.65
12339, 0.33, 0.08, 0.98, -0.84, 16.87, -8.82
12340, 0.27, 0.07, 0.98, 2.87, 9.17, -6.72
12341, 0.26, 0.07, 0.98, -1.05, 10.85, -1.26
12342, 0.27, 0.11, 0.98, -3.08, 9.87, 4.34
12343, 0.26, 0.11, 0.98, -1.61, 7.35, 2.17
12344, 0.27, 0.09, 0.98, -0.77, 5.88, -0.28
12345, 0.26, 0.10, 0.98, -0.35, 6.44, 1.19
12346, 0.26, 0.11, 0.99, -1.54, 3.92, 0.77
12347, 0.27, 0.11, 0.98, -4.62, 5.11, -0.49
12348, 0.25, 0.09, 0.98, -4.13, 2.66, 0.07
12349, 0.24, 0.06, 0.97, -2.03, -2.94, 0.42
12350, 0.24, 0.06, 0.98, -2.10, -6.51, 2.87
12351, 0.23, 0.04, 0.98, -0.49, -13.37, 4.97
12352, 0.26, 0.07, 0.98, -2.03, -13.16, 6.44
12353, 0.24, 0.06, 0.98, -1.05, -22.26, 6.72
12354, 0.30, 0.09, 0.98, -6.02, -17.78, 4.13
12355, 0.33, 0.08, 1.00, -7.00, -11.48, -0.56
12356, 0.33, 0.06, 0.98, -1.89, -6.51, -0.70
12357, 0.30, 0.05, 0.97, 0.49, -6.79, -0.28
12358, 0.30, 0.05, 0.96, 2.24, -9.17, -0.63
12359, 0.31, 0.05, 0.97, 3.99, -11.83, -0.35
12360, 0.32, 0.06, 0.97, 5.32, -10.99, 0.35
12361, 0.32, 0.06, 0.97, 5.95, -10.99, 1.68
12362, 0.34, 0.08, 0.98, 3.43, -6.30, -0.91
12363, 0.37, 0.10, 0.98, 2.45, 4.41, -5.95
12364, 0.36, 0.11, 0.98, 4.34, 9.17, -5.74
12365, 0.30, 0.04, 0.99, 5.46, 9.10, -3.29
12366, 0.32, 0.08, 0.97, 0.77, 17.78, -4.41
12367, 0.31, 0.08, 0.99, 1.68, 12.60, -3.29
12368, 0.27, 0.08, 0.99, -2.24, 17.29, 0.63
12369, 0.25, 0.10, 0.98, 0.56, 10.50, 7.07
12370, 0.24, 0.10, 0.99, -0.35, 11.90, 8.68
12371, 0.24, 0.10, 0.98, 2.52, 2.80, 4.62
12372, 0.29, 0.12, 0.98, -1.19, 11.13, 1.33
12373, 0.27, 0.12, 0.97, 1.40, 9.80, 0.77
12374, 0.23, 0.10, 0.98, 1.47, 3.57, 0.56
12375, 0.24, 0.09, 0.98, -1.82, -0.56, -1.47
12376, 0.24, 0.09, 0.97, -5.04, -3.22, 0.42
12377, 0.22, 0.06, 0.97, -0.91, -16.38, 2.66
12378, 0.23, 0.06, 0.98, -2.59, -18.97, 5.25
12379, 0.27, 0.06, 0.99, -1.12, -22.47, 7.14
12380, 0.30, 0.05, 0.99, -1.26, -17.43, 5.67
12381, 0.32, 0.05, 0.98, 1.68, -13.44, 2.80
12382, 0.31, 0.07, 0.97, 4.55, -9.24, 3.08
12383, 0.30, 0.07, 0.96, 6.37, -10.43, 2.73
12384, 0.30, 0.07, 0.97, 6.58, -10.99, 1.96
12385, 0.31, 0.07, 0.97, 9.03, -13.09, 2.73
12386, 0.33, 0.08, 0.97, 7.07, -11.55, 2.94
12387, 0.34, 0.09, 0.97, 2.80, -9.17, 0.84
12388, 0.37, 0.11, 0.98, 3.01, -0.77, -2.73
12389, 0.35, 0.09, 0.97, 0.98, 4.48, -4.76
12390, 0.33, 0.08, 0.98, -0.14, 9.17, -2.94
12391, 0.32, 0.09, 0.98, -1.54, 11.83, -3.43
12392, 0.32, 0.09, 1.00, -2.31, 14.84, -5.04
12393, 0.29, 0.08, 0.98, -1.19, 15.40, -3.15
12394, 0.25, 0.08, 0.97, -1.12, 10.08, -1.68
12395, 0.26, 0.10, 0.97, -5.25, 11.62, 1.12
12396, 0.22, 0.11, 0.97, -5.32, 2.73, 2.80
12397, 0.26, 0.10, 0.97, -7.00, -4.76, -1.26
12398, 0.27, 0.08, 0.98, -6.02, -3.85, -0.63
12399, 0.29, 0.08, 0.98, -6.37, -2.59, 1.40
12400, 0.29, 0.09, 0.98, -3.43, -2.17, 3.92
12401, 0.28, 0.11, 0.98, -3.85, -1.68, 3.78
12402, 0.28, 0.11, 0.97, -6.02, -4.97, 3.57
12403, 0.26, 0.07, 0.99, -4.48, -9.03, 4.06
12404, 0.29, 0.03, 0.98, -3.64, -10.78, -0.91
12405, 0.31, 0.03, 0.97, -1.12, -5.25, -0.49
12406, 0.29, 0.05, 0.97, 3.22, -3.08, 4.06
12407, 0.28, 0.11, 0.98, 2.03, -2.66, 7.35
12408, 0.27, 0.07, 1.00, 2.17, -12.04, 3.64
12409, 0.31, 0.07, 0.97, 1.05, -8.05, 0.63
12410, 0.29, 0.06, 0.96, 2.45, -8.47, -0.49
12411, 0.30, 0.06, 0.97, 1.61, -7.70, -0.49
12412, 0.29, 0.05, 0.97, 4.62, -13.16, 0.49
12413, 0.31, 0.06, 0.97, 4.55, -13.09, 3.08
12414, 0.33, 0.06, 0.97, 4.13, -12.46, 1.05
12415, 0.37, 0.08, 0.98, 2.66, -4.06, -2.80
12416, 0.37, 0.10, 0.98, 4.20, 0.14, -3.22
12417, 0.34, 0.10, 0.97, 4.41, 6.16, 1.47
12418, 0.31, 0.09, 0.98, 1.12, 6.16, 3.22
12419, 0.32, 0.08, 0.97, -1.47, 7.07, 0.77
12420, 0.33, 0.06, 0.99, -1.75, 11.41, -2.80
12421, 0.32, 0.07, 0.99, -0.91, 14.70, -1.75
12422, 0.28, 0.06, 0.97, 3.71, 9.24, 0.70
12423, 0.27, 0.08, 0.97, -2.31, 12.67, 2.45
12424, 0.25, 0.10, 0.97, -2.59, 5.60, 4.13
12425, 0.25, 0.10, 0.97, -2.87, -1.33, 2.59
12426, 0.29, 0.09, 0.97, -5.04, -4.13, 0.14
12427, 0.31, 0.09, 0.98, -3.01, -0.14, -1.89
12428, 0.30, 0.08, 0.98, 0.70, 2.03, -0.77
12429, 0.28, 0.08, 0.97, 0.70, 1.89, 0.35
12430, 0.26, 0.08, 0.97, -1.33, -1.54, 1.26
12431, 0.26, 0.08, 0.98, -2.31, -5.95, 1.96
12432, 0.25, 0.05, 0.99, -2.87, -14.28, 1.54
12433, 0.29, 0.03, 0.98, -4.27, -12.95, 0.91
12434, 0.33, 0.08, 0.97, -3.64, -6.09, 3.43
12435, 0.29, 0.07, 0.98, 0.21, -5.81, 5.25
12436, 0.27, 0.05, 0.98, 0.14, -10.64, 1.68
12437, 0.31, 0.05, 0.97, 0.14, -8.26, -0.21
12438, 0.31, 0.06, 0.96, 3.71, -7.84, -0.70
12439, 0.30, 0.07, 0.97, 3.85, -8.61, 0.07
12440, 0.30, 0.06, 0.97, 6.09, -13.58, 0.70
12441, 0.32, 0.06, 0.96, 2.87, -13.58, 1.68
12442, 0.35, 0.07, 0.97, 0.77, -10.29, -1.96
12443, 0.37, 0.07, 0.98, 3.01, -6.58, -7.14
12444, 0.39, 0.10, 0.97, 1.05, 8.75, -8.12
12445, 0.35, 0.10, 0.98, 5.11, 11.20, -4.41
12446, 0.30, 0.06, 0.97, 3.29, 11.76, -5.18
12447, 0.31, 0.05, 0.97, 1.61, 11.69, -8.19
12448, 0.33, 0.08, 0.99, 0.49, 18.20, -8.75
12449, 0.31, 0.06, 1.00, 4.83, 17.22, -7.28
12450, 0.26, 0.06, 0.95, 6.51, 13.79, -2.94
12451, 0.25, 0.12, 0.98, -0.77, 19.46, 5.32
12452, 0.19, 0.12, 0.97, 0.84, -0.91, 6.16
12453, 0.24, 0.12, 0.97, -6.23, -0.42, 1.12
12454, 0.28, 0.12, 0.99, -4.97, -2.80, -1.26
12455, 0.29, 0.11, 0.99, -2.24, -0.21, -2.03
12456, 0.27, 0.09, 0.98, -1.12, -0.14, -1.54
12457, 0.26, 0.07, 0.98, -0.70, -3.08, -0.49
12458, 0.26, 0.10, 0.97, -3.50, -3.50, 2.24
12459, 0.25, 0.08, 0.98, -2.73, -10.71, 3.08
12460, 0.25, 0.05, 0.99, -1.40, -15.40, 5.39
12461, 0.30, 0.08, 0.98, -2.59, -10.71, 6.65
12462, 0.31, 0.06, 0.98, -1.47, -7.00, 3.99
12463, 0.29, 0.05, 0.98, 3.15, -7.21, 4.34
12464, 0.28, 0.06, 0.97, 4.13, -6.79, 5.67
12465, 0.29, 0.08, 0.96, 5.04, -8.54, 6.65
12466, 0.30, 0.08, 0.97, 3.71, -11.34, 5.46
12467, 0.32, 0.08, 0.98, 3.57, -13.30, 3.01
12468, 0.33, 0.06, 0.96, 5.25, -13.16, 0.21
12469, 0.34, 0.06, 0.96, 6.30, -8.96, 0.28
12470, 0.33, 0.07, 0.98, 6.02, -6.72, 0.91
12471, 0.35, 0.14, 0.98, -0.63, 1.26, -0.07
12472, 0.35, 0.10, 0.99, -4.76, 3.78, -7.07
12473, 0.34, 0.04, 0.99, -3.57, 8.19, -12.67
12474, 0.33, 0.06, 0.98, -8.26, 18.20, -11.62
12475, 0.32, 0.11, 0.96, -10.57, 22.05, -4.55
12476, 0.23, 0.04, 0.99, -5.74, 7.77, -2.52
12477, 0.29, 0.07, 0.99, -5.81, 7.77, -3.57
12478, 0.31, 0.09, 0.99, -3.15, 16.24, 0.49
12479, 0.26, 0.10, 0.98, 0.21, 11.62, 5.74
12480, 0.21, 0.09, 0.97, -3.50, 6.51, 7.56
12481, 0.19, 0.10, 0.98, -4.27, -6.58, 7.49
12482, 0.22, 0.11, 0.98, -8.54, -9.94, 5.88
12483, 0.26, 0.05, 0.98, -4.62, -19.18, 0.21
12484, 0.29, 0.03, 0.97, -5.11, -14.49, -0.14
12485, 0.29, 0.06, 0.98, -3.78, -10.22, 2.73
12486, 0.29, 0.06, 0.97, -1.26, -14.28, 1.19
12487, 0.32, 0.06, 0.98, -1.40, -12.32, -0.14
12488, 0.32, 0.04, 0.97, 2.24, -10.01, 0.91
12489, 0.31, 0.04, 0.97, 4.62, -12.46, 1.33
12490, 0.34, 0.05, 0.98, 6.30, -10.85, -1.68
12491, 0.36, 0.06, 0.97, 1.68, -1.47, -3.50
12492, 0.33, 0.05, 0.98, 3.50, 1.68, -2.31
12493, 0.32, 0.06, 0.97, 3.92, 5.04, 0.14
12494, 0.31, 0.07, 0.98, -0.14, 6.58, 2.73
12495, 0.30, 0.05, 0.98, -1.75, 5.74, 2.03
12496, 0.32, 0.06, 0.99, -2.31, 9.31, 2.52
12497, 0.30, 0.06, 1.00, -1.82, 13.72, 3.15
12498, 0.24, 0.05, 0.97, -1.05, 3.78, 6.16
12499, 0.27, 0.08, 0.97, -7.14, 6.23, 5.74
12500, 0.25, 0.09, 0.99, -10.01, -0.42, 6.86
12501, 0.25, 0.07, 0.96, -13.02, -5.81, 5.88
12502, 0.28, 0.05, 0.98, -13.44, -8.61, 7.21
12503, 0.29, 0.04, 0.99, -9.52, -7.35, 8.05
12504, 0.30, 0.05, 0.99, -4.41, -7.77, 6.58
12505, 0.30, 0.06, 0.98, -1.12, -3.85, 5.04
12506, 0.30, 0.04, 0.98, -0.49, -5.46, 0.14
12507, 0.28, 0.01, 0.97, -0.63, -6.09, -1.19
12508, 0.28, -0.01, 0.98, 0.98, -9.31, -1.47
12509, 0.32, 0.05, 0.97, -3.08, -0.63, 3.57
12510, 0.29, 0.02, 0.98, -1.82, -6.44, 6.58
12511, 0.29, 0.02, 0.98, -0.21, -10.22, 4.62
12512, 0.33, 0.03, 0.97, -1.05, -7.21, 0.77
12513, 0.33, 0.04, 0.96, 1.89, -4.97, 1.05
12514, 0.31, 0.02, 0.98, 3.71, -7.63, 0.49
12515, 0.30, 0.01, 0.97, 4.34, -9.52, -0.63
12516, 0.31, 0.01, 0.97, 2.80, -9.52, -0.70
12517, 0.35, 0.03, 0.98, 2.38, -4.90, -3.64
12518, 0.37, 0.05, 0.99, 4.90, -1.82, -3.36
12519, 0.35, 0.06, 0.97, 4.06, 5.04, 0.70
12520, 0.32, 0.06, 0.97, 2.52, 6.72, 1.82
12521, 0.31, 0.04, 0.98, 0.98, 5.25, 2.87
12522, 0.32, 0.04, 0.99, -1.19, 6.23, 1.33
12523, 0.33, 0.05, 0.99, -2.38, 12.39, -0.21
12524, 0.30, 0.03, 0.98, 0.84, 11.27, -3.57
12525, 0.31, 0.06, 0.97, -0.77, 19.74, -1.54
12526, 0.24, 0.02, 0.98, 1.82, 9.10, 0.14
12527, 0.28, 0.04, 0.98, -3.22, 6.09, -2.03
12528, 0.28, 0.05, 0.98, -2.03, 9.03, 3.15
12529, 0.24, 0.05, 0.99, 0.07, -0.28, 7.28
12530, 0.26, 0.05, 0.98, -2.66, -3.92, 5.18
12531, 0.29, 0.07, 0.98, -4.27, -1.26, 2.59
12532, 0.26, 0.05, 0.99, -2.66, -5.74, -1.61
12533, 0.27, 0.01, 0.98, -3.08, -6.16, -3.50
12534, 0.26, -0.00, 0.98, -2.73, -10.01, -0.42
12535, 0.28, 0.01, 0.98, -3.15, -9.45, 1.89
12536, 0.28, 0.00, 0.98, -3.29, -11.83, 1.96
12537, 0.30, 0.01, 0.97, -3.22, -11.34, 2.73
12538, 0.30, 0.02, 0.97, -2.38, -10.57, 3.15
12539, 0.29, 0.02, 0.96, 0.63, -13.58, 2.66
12540, 0.30, 0.03, 0.98, -0.42, -14.98, 0.91
12541, 0.32, 0.03, 0.98, -2.31, -15.75, 0.84
12542, 0.34, 0.02, 0.97, -0.49, -14.63, -2.10
12543, 0.38, 0.05, 0.99, 1.19, -7.91, -5.88
12544, 0.36, 0.03, 0.97, 4.27, -2.10, -3.57
12545, 0.34, 0.03, 0.98, 4.34, 1.89, 0.14
12546, 0.33, 0.03, 0.98, 5.04, 2.31, 0.91
12547, 0.34, 0.02, 0.98, 2.52, 4.97, -1.82
12548, 0.33, 0.03, 0.98, 0.91, 9.38, -0.84
12549, 0.32, 0.02, 0.99, 2.17, 9.17, 0.91
12550, 0.30, 0.03, 0.97, 3.15, 10.92, -0.70
12551, 0.32, 0.03, 0.99, 1.05, 16.24, -2.38
12552, 0.30, 0.05, 0.97, 3.50, 17.08, 1.68
12553, 0.26, 0.05, 0.98, 3.71, 16.59, 6.16
12554, 0.22, 0.04, 0.98, 3.71, 5.74, 6.72
12555, 0.24, 0.07, 0.98, -1.82, 1.68, 6.02
12556, 0.26, 0.06, 0.98, -2.59, -4.55, 3.85
12557, 0.26, 0.04, 0.98, -4.90, -5.32, 5.18
12558, 0.24, 0.02, 0.98, -4.90, -13.65, 5.95
12559, 0.26, 0.01, 0.98, -8.40, -16.17, 5.04
12560, 0.31, 0.02, 0.98, -9.80, -14.35, 3.29
12561, 0.31, 0.01, 0.98, -5.67, -12.39, 3.50
12562, 0.31, -0.01, 0.98, -3.08, -12.53, 5.39
12563, 0.31, 0.01, 0.97, -2.66, -10.57, 7.49
12564, 0.31, 0.02, 0.97, -3.57, -10.43, 5.88
12565, 0.31, -0.01, 0.97, -2.31, -16.03, 2.45
12566, 0.34, -0.01, 0.97, -2.17, -13.58, 1.82
12567, 0.36, 0.02, 0.98, 0.70, -11.06, 1.19
12568, 0.36, 0.01, 0.97, 0.84, -2.80, 0.21
12569, 0.35, 0.01, 0.98, 2.87, 0.28, 0.91
12570, 0.34, 0.02, 0.98, 4.27, 3.29, 2.66
12571, 0.33, 0.00, 0.98, 4.27, 3.57, 3.01
12572, 0.33, 0.01, 0.98, 1.26, 4.76, 1.47
12573, 0.34, -0.00, 0.98, 1.75, 6.02, -1.96
12574, 0.35, 0.02, 0.98, 1.19, 17.57, -1.40
12575, 0.30, -0.00, 0.97, 2.80, 14.84, -0.35
12576, 0.27, 0.02, 0.97, -0.21, 13.23, 1.82
12577, 0.25, 0.02, 0.98, -3.57, 6.23, 3.57
12578, 0.26, 0.03, 0.99, -5.39, -1.19, 4.13
12579, 0.30, 0.03, 0.98, -6.58, -2.10, 0.91
12580, 0.33, 0.03, 0.98, -4.55, 1.89, -0.21
12581, 0.30, 0.01, 0.99, -2.94, 1.26, -1.54
12582, 0.29, 0.03, 0.97, -5.88, 4.48, 0.70
12583, 0.28, 0.03, 0.99, -6.79, 3.36, 3.57
12584, 0.23, -0.04, 0.98, -2.10, -15.61, -0.63
12585, 0.27, -0.06, 0.95, -6.16, -12.39, -2.31
12586, 0.29, -0.03, 0.97, -4.20, -12.74, 0.07
12587, 0.31, -0.01, 0.97, -2.80, -13.23, -1.05
12588, 0.32, 0.00, 0.99, -0.70, -10.15, 1.33
12589, 0.34, -0.00, 1.00, 1.12, -10.08, 0.00
12590, 0.34, 0.02, 0.98, 1.82, -6.09, 1.54
12591, 0.31, -0.03, 0.95, 3.29, -8.61, -2.80
12592, 0.32, -0.00, 0.96, 1.96, -6.51, -3.92
12593, 0.34, -0.01, 0.99, 4.41, -6.51, -3.50
12594, 0.35, 0.03, 0.99, 3.50, -0.07, 3.08
12595, 0.33, 0.02, 0.98, 3.99, -0.42, 6.02
12596, 0.32, 0.00, 0.97, 1.89, 1.75, 4.06
12597, 0.34, -0.00, 0.99, -0.49, 4.20, 2.10
12598, 0.35, 0.02, 0.98, -0.42, 10.15, 1.96
12599, 0.29, -0.02, 0.98, 1.33, 6.09, 2.59
12600, 0.29, -0.00, 0.96, -4.55, 8.61, 4.76
12601, 0.28, -0.01, 0.97, -5.67, 6.30, 5.53
12602, 0.29, 0.01, 0.97, -7.00, -4.55, 3.15
12603, 0.32, 0.01, 0.99, -7.07, -0.77, 2.17
12604, 0.32, -0.01, 0.99, -4.27, -3.99, -0.56
12605, 0.34, -0.01, 0.96, -3.08, 3.01, -0.70
12606, 0.31, 0.00, 0.97, -1.89, 3.85, 1.68
12607, 0.29, -0.02, 0.98, -1.75, -1.05, 1.75
12608, 0.29, 0.02, 0.97, -6.09, 1.12, 4.83
12609, 0.24, -0.05, 0.98, -3.36, -9.94, 2.10
12610, 0.30, -0.06, 0.98, -6.51, -12.04, -3.15
12611, 0.29, -0.08, 0.96, -3.08, -11.97, 0.49
12612, 0.32, -0.01, 0.96, -3.29, -8.12, 3.71
12613, 0.34, 0.00, 0.99, -1.26, -9.52, 0.63
12614, 0.32, -0.04, 1.00, 2.66, -12.11, -2.03
12615, 0.33, -0.03, 0.96, -0.28, -4.06, -2.66
12616, 0.31, -0.02, 0.95, 3.92, -10.08, -2.31
12617, 0.34, -0.01, 0.96, 3.71, -9.80, -3.64
12618, 0.36, -0.02, 0.98, 4.69, -8.47, -4.06
12619, 0.37, 0.01, 0.98, 4.97, -2.03, -0.07
12620, 0.36, 0.01, 0.98, 5.04, 1.61, 1.82
12621, 0.35, -0.00, 0.97, 2.73, 4.34, 2.73
12622, 0.34, -0.00, 0.97, 0.56, 7.70, 1.26
12623, 0.31, -0.04, 0.97, -0.77, 4.90, -0.77
12624, 0.33, -0.02, 0.98, -4.83, 10.64, 0.56
12625, 0.31, 0.00, 0.95, -3.85, 13.09, 5.32
12626, 0.27, -0.05, 0.97, -4.55, 4.41, 4.20
12627, 0.30, -0.01, 0.98, -6.23, 0.84, 1.82
12628, 0.31, -0.01, 0.99, -5.88, -3.22, 0.00
12629, 0.35, -0.00, 0.98, -4.97, 3.43, -2.10
12630, 0.35, 0.01, 0.96, -0.70, 11.76, 0.49
12631, 0.26, -0.05, 0.98, 3.99, 3.99, 0.49
12632, 0.26, -0.04, 0.98, -2.17, -0.56, 1.75
12633, 0.26, -0.03, 0.97, -4.13, -7.77, 1.75
12634, 0.28, -0.05, 0.97, -4.06, -10.78, 1.61
12635, 0.30, -0.05, 0.98, -4.48, -11.41, 3.57
12636, 0.32, -0.04, 0.97, -2.52, -9.73, 3.36
12637, 0.31, -0.02, 0.97, -0.21, -9.87, 4.55
12638, 0.33, -0.04, 1.00, 0.98, -12.60, -0.70
12639, 0.34, -0.03, 0.97, 1.40, -9.03, -1.75
12640, 0.33, -0.03, 0.95, -0.35, -3.29, 0.14
12641, 0.31, -0.03, 0.94, 2.45, -10.85, 1.26
12642, 0.34, -0.05, 0.99, 0.84, -10.78, 1.12
12643, 0.37, -0.00, 0.99, -0.77, -5.25, 4.69
12644, 0.36, -0.02, 0.98, 2.17, -3.50, 5.60
12645, 0.35, -0.04, 0.97, 0.70, 1.54, 3.78
12646, 0.33, -0.05, 0.97, 2.17, 2.87, 1.05
12647, 0.35, -0.03, 0.96, 0.77, 5.60, -0.28
12648, 0.32, -0.05, 0.99, 1.89, 11.34, 0.14
12649, 0.30, -0.05, 0.97, -0.56, 5.11, -1.19
12650, 0.34, -0.01, 0.96, -3.43, 13.93, -0.14
12651, 0.29, -0.04, 0.97, 0.00, 2.38, -0.28
12652, 0.31, -0.02, 0.98, -4.20, 3.50, -1.82
12653, 0.32, -0.02, 0.99, -4.20, 1.75, -2.73
12654, 0.33, -0.03, 0.97, -4.13, 5.25, -3.64
12655, 0.32, -0.03, 0.95, -1.47, 8.19, -2.31
12656, 0.28, -0.05, 0.98, 0.49, 6.79, -1.12
12657, 0.26, -0.07, 0.98, 2.03, -4.34, -2.59
12658, 0.27, -0.06, 0.98, -2.59, -3.57, -0.07
12659, 0.30, -0.04, 0.97, -3.71, -5.74, 1.33
12660, 0.30, -0.04, 0.98, -4.83, -6.86, 1.89
12661, 0.30, -0.04, 0.98, -6.44, -6.65, 0.56
12662, 0.31, -0.03, 0.97, -6.44, -5.25, -0.77
12663, 0.32, -0.03, 0.98, -4.97, -4.34, -1.05
12664, 0.32, -0.04, 0.98, -4.69, -3.29, -3.15
12665, 0.33, -0.05, 0.98, -4.06, -2.59, -6.30
12666, 0.34, -0.04, 0.97, -1.40, 4.55, -6.02
12667, 0.33, -0.05, 0.96, 1.05, 5.95, -6.37
12668, 0.32, -0.06, 0.98, 0.49, 5.04, -8.68
12669, 0.32, -0.05, 0.97, -1.26, 8.61, -8.61
12670, 0.30, -0.05, 0.97, -0.84, 9.03, -7.77
12671, 0.29, -0.04, 0.98, -1.54, 8.96, -6.16
12672, 0.28, -0.04, 0.99, -2.03, 5.95, -6.02
12673, 0.27, -0.05, 0.98, -2.31, 2.17, -8.05
12674, 0.27, -0.06, 0.98, -3.22, -0.14, -9.38
12675, 0.30, -0.04, 0.99, -3.22, 4.27, -9.03
12676, 0.28, -0.04, 0.99, -4.27, 4.27, -8.40
12677, 0.28, -0.04, 0.99, -4.34, 4.76, -8.82
12678, 0.28, -0.02, 0.98, -5.53, 7.28, -7.42
12679, 0.26, -0.05, 0.99, -3.85, 2.31, -6.79
12680, 0.24, -0.06, 0.99, -4.20, -1.89, -6.79
12681, 0.27, -0.05, 0.99, -7.77, -0.35, -7.07
12682, 0.28, -0.04, 0.98, -7.35, 0.35, -5.32
12683, 0.28, -0.05, 0.98, -5.74, 1.40, -4.62
12684, 0.26, -0.07, 0.98, -4.13, -0.77, -5.25
12685, 0.26, -0.06, 0.99, -4.97, -0.98, -5.53
12686, 0.28, -0.07, 0.99, -1.61, -3.22, -5.46
12687, 0.29, -0.06, 0.98, 0.84, -2.03, -3.99
12688, 0.28, -0.06, 0.98, 2.87, -0.28, -3.50
12689, 0.27, -0.06, 0.98, 4.34, -1.82, -3.71
12690, 0.27, -0.06, 0.99, 4.90, -2.52, -4.20
12691, 0.27, -0.06, 0.98, 5.25, -4.90, -3.57
12692, 0.27, -0.06, 0.99, 6.79, -7.07, -2.38
12693, 0.27, -0.06, 0.98, 8.05, -7.21, -2.10
12694, 0.27, -0.05, 0.99, 8.26, -6.37, -1.05
12695, 0.28, -0.03, 0.99, 8.47, -4.27, 0.21
