t,ax,ay,az,gx,gy,gz
17258, 0.75, -0.50, -0.42, 4.48, 3.71, 5.32
17259, 0.75, -0.50, -0.43, 0.63, -0.77, 3.71
17260, 0.74, -0.50, -0.43, 1.75, -1.54, 5.67
17261, 0.73, -0.51, -0.43, 0.07, -1.61, -0.84
17262, 0.75, -0.50, -0.43, -1.33, -1.26, 1.19
17263, 0.74, -0.50, -0.43, 0.00, -1.75, 0.77
17264, 0.74, -0.51, -0.43, -0.56, -0.49, -2.17
17265, 0.75, -0.50, -0.43, -0.56, -1.54, -0.21
17266, 0.74, -0.50, -0.43, -0.56, -1.96, 2.80
17267, 0.75, -0.50, -0.42, 0.28, -2.87, 2.80
17268, 0.73, -0.51, -0.44, 0.84, -1.33, 2.17
17269, 0.74, -0.51, -0.43, 0.77, -3.08, 2.38
17270, 0.74, -0.51, -0.44, -0.42, -1.61, 1.40
17271, 0.74, -0.50, -0.43, 0.49, 0.77, 1.54
17272, 0.74, -0.51, -0.43, -0.14, 0.63, 0.91
17273, 0.74, -0.51, -0.43, -0.70, -1.12, 1.47
17274, 0.74, -0.51, -0.43, -1.40, 0.91, -0.56
17275, 0.75, -0.50, -0.43, -0.56, 1.75, 0.91
17276, 0.75, -0.50, -0.43, -3.92, -0.21, 1.40
17277, 0.75, -0.51, -0.43, -6.86, -1.05, 4.34
17278, 0.74, -0.50, -0.44, -6.72, -3.50, 4.69
17279, 0.74, -0.50, -0.44, -6.23, -5.53, 6.44
17280, 0.73, -0.51, -0.44, -2.87, -4.69, 5.18
17281, 0.73, -0.51, -0.44, -0.91, -1.82, 0.49
17282, 0.74, -0.51, -0.43, -1.68, -2.80, -1.33
17283, 0.73, -0.51, -0.45, -3.08, -3.36, -1.96
17284, 0.74, -0.51, -0.43, -4.62, -1.89, -5.32
17285, 0.73, -0.50, -0.45, 0.49, 0.28, -2.80
17286, 0.73, -0.52, -0.43, -1.33, 5.11, -15.47
17287, 0.74, -0.38, -0.44, -3.78, 3.99, -24.22
17288, 0.75, -0.47, -0.45, 16.87, 0.77, -14.91
17289, 0.75, -0.48, -0.42, 5.95, 6.93, -18.97
17290, 0.77, -0.47, -0.43, 5.46, 4.83, -11.69
17291, 0.78, -0.46, -0.43, 5.95, 2.31, 1.82
17292, 0.76, -0.47, -0.43, 2.94, -2.24, 6.16
17293, 0.76, -0.47, -0.44, 4.13, -3.64, 10.08
17294, 0.77, -0.47, -0.44, 4.27, -3.92, 13.58
17295, 0.74, -0.49, -0.43, 5.25, 6.02, 8.82
17296, 0.75, -0.51, -0.44, 0.70, 3.08, 4.97
17297, 0.75, -0.53, -0.45, -17.85, 1.96, 6.86
17298, 0.74, -0.49, -0.42, -2.87, 2.17, 5.46
17299, 0.75, -0.50, -0.43, 0.98, -2.17, 2.24
17300, 0.75, -0.49, -0.43, 0.49, -2.10, 2.24
17301, 0.75, -0.49, -0.43, 0.07, -5.18, 4.55
17302, 0.75, -0.49, -0.43, 0.07, -7.00, 8.05
17303, 0.74, -0.50, -0.43, -1.19, -7.56, 8.96
17304, 0.74, -0.51, -0.43, -1.61, -10.22, 9.80
17305, 0.72, -0.52, -0.45, 0.42, -4.69, 1.96
17306, 0.74, -0.52, -0.43, -0.70, -3.85, 3.78
17307, 0.73, -0.50, -0.44, -0.84, 0.56, 0.70
17308, 0.74, -0.51, -0.44, 0.28, -1.33, 2.24
17309, 0.74, -0.50, -0.43, 0.56, -1.33, 3.85
17310, 0.73, -0.50, -0.44, 1.26, -0.14, 5.18
17311, 0.73, -0.51, -0.44, 0.07, 0.07, 4.06
17312, 0.73, -0.51, -0.44, 0.14, 0.56, 4.83
17313, 0.73, -0.52, -0.43, 0.77, 2.17, 5.04
17314, 0.73, -0.53, -0.43, -0.98, 5.04, 5.04
17315, 0.74, -0.52, -0.43, -5.04, 0.91, 1.75
17316, 0.73, -0.52, -0.44, -5.81, 0.07, 1.12
17317, 0.72, -0.53, -0.43, -7.35, 1.26, -3.43
17318, 0.74, -0.51, -0.44, -5.39, 1.26, -5.11
17319, 0.72, -0.53, -0.43, -4.55, 3.15, -10.78
17320, 0.74, -0.50, -0.44, -5.95, 3.08, -18.83
17321, 0.75, -0.49, -0.44, -3.64, 2.45, -19.39
17322, 0.75, -0.48, -0.44, -3.50, 2.59, -12.95
17323, 0.74, -0.50, -0.43, 5.39, 5.53, -20.09
17324, 0.76, -0.48, -0.43, 4.34, 5.88, -19.74
17325, 0.75, -0.50, -0.41, 11.48, 7.21, -21.35
17326, 0.79, -0.45, -0.42, 6.09, 1.96, -12.39
17327, 0.78, -0.47, -0.42, 6.30, 0.14, -4.83
17328, 0.78, -0.45, -0.42, 7.84, 0.77, 5.39
17329, 0.77, -0.46, -0.42, 10.01, 1.82, 10.92
17330, 0.78, -0.49, -0.41, 5.32, 4.55, 7.91
17331, 0.79, -0.51, -0.43, -4.90, 10.71, 12.81
17332, 0.77, -0.47, -0.42, -10.22, 12.11, 12.88
17333, 0.76, -0.51, -0.42, -3.08, 20.86, 0.70
17334, 0.76, -0.50, -0.41, -5.81, 15.82, 17.43
17335, 0.75, -0.48, -0.37, 3.78, -1.89, 5.18
17336, 0.78, -0.49, -0.40, 3.64, -10.99, 5.39
17337, 0.77, -0.49, -0.40, 1.19, -4.62, 3.99
17338, 0.76, -0.49, -0.40, 0.70, -6.65, 2.38
17339, 0.77, -0.49, -0.40, -1.05, -8.05, 4.06
17340, 0.77, -0.48, -0.41, 0.70, -6.09, 9.10
17341, 0.78, -0.49, -0.40, -1.40, -7.35, 12.04
17342, 0.76, -0.49, -0.40, -2.17, -5.32, 14.49
17343, 0.76, -0.51, -0.39, -2.03, -1.40, 11.55
17344, 0.76, -0.50, -0.41, -2.59, -3.15, 14.28
17345, 0.75, -0.52, -0.42, -5.18, -3.08, 16.31
17346, 0.75, -0.52, -0.41, -10.92, -1.54, 11.97
17347, 0.73, -0.52, -0.40, -8.40, 0.14, 11.06
17348, 0.73, -0.51, -0.42, -1.89, -0.56, 5.67
17349, 0.74, -0.53, -0.42, 0.56, 1.75, 3.08
17350, 0.74, -0.51, -0.42, 1.75, -1.75, 2.87
17351, 0.74, -0.51, -0.42, 0.14, -0.63, 3.36
17352, 0.74, -0.52, -0.42, -1.12, 0.70, 4.90
17353, 0.75, -0.50, -0.42, -9.03, 4.97, 4.90
17354, 0.73, -0.52, -0.41, -2.17, 4.06, 2.73
17355, 0.74, -0.53, -0.41, -0.07, 4.27, -0.28
17356, 0.74, -0.52, -0.41, 1.89, 5.67, -1.82
17357, 0.74, -0.53, -0.41, 2.45, 5.81, -2.38
17358, 0.74, -0.52, -0.40, 1.26, 6.93, -4.69
17359, 0.72, -0.54, -0.40, 0.49, 6.72, -14.49
17360, 0.72, -0.57, -0.41, 12.60, -0.91, -44.52
17361, 0.79, -0.44, -0.41, 4.41, 4.48, -53.20
17362, 0.77, -0.46, -0.42, 3.43, 1.68, -49.14
17363, 0.73, -0.48, -0.41, 37.38, -14.63, -44.03
17364, 0.79, -0.47, -0.39, -2.73, 8.19, -28.28
17365, 0.83, -0.44, -0.39, -1.33, 4.27, -25.55
17366, 0.82, -0.45, -0.38, 0.35, -2.66, -8.54
17367, 0.80, -0.45, -0.39, 0.98, -3.50, -0.98
17368, 0.81, -0.43, -0.39, 6.37, -4.90, 2.17
17369, 0.83, -0.43, -0.37, 3.29, -5.11, 10.57
17370, 0.80, -0.45, -0.39, 5.53, -3.85, 14.63
17371, 0.79, -0.46, -0.40, 7.00, -1.26, 15.05
17372, 0.80, -0.46, -0.39, 4.48, 2.10, 12.32
17373, 0.79, -0.47, -0.38, 1.54, 0.35, 11.83
17374, 0.78, -0.48, -0.37, 0.91, 1.54, 6.30
17375, 0.79, -0.49, -0.38, -0.56, 1.40, 3.50
17376, 0.79, -0.49, -0.37, 0.98, -4.90, 7.42
17377, 0.79, -0.47, -0.38, 1.19, -6.86, 15.75
17378, 0.77, -0.48, -0.39, -2.87, -2.17, 14.77
17379, 0.77, -0.51, -0.38, 0.42, -0.98, 9.03
17380, 0.78, -0.49, -0.39, -0.21, -2.38, 6.02
17381, 0.78, -0.49, -0.39, -0.49, -4.48, 7.56
17382, 0.77, -0.49, -0.39, 1.19, -3.92, 9.94
17383, 0.77, -0.51, -0.39, 1.68, -2.45, 9.17
17384, 0.76, -0.50, -0.39, 2.66, 2.38, 3.99
17385, 0.77, -0.50, -0.39, 0.77, 2.10, 0.56
17386, 0.76, -0.51, -0.39, 1.89, 2.03, -0.70
17387, 0.76, -0.49, -0.39, 1.96, 4.90, -5.60
17388, 0.77, -0.51, -0.39, 1.19, 4.13, -5.39
17389, 0.77, -0.52, -0.39, 3.01, 3.64, -5.88
17390, 0.77, -0.50, -0.39, 7.00, 2.31, -10.01
17391, 0.78, -0.46, -0.35, 5.39, 6.37, -10.92
17392, 0.79, -0.50, -0.36, 1.12, 8.54, -18.62
17393, 0.78, -0.50, -0.35, 3.78, -0.35, -17.43
17394, 0.77, -0.51, -0.36, -3.01, 1.54, -23.10
17395, 0.78, -0.48, -0.37, -2.59, 1.89, -38.57
17396, 0.77, -0.49, -0.39, 33.04, -7.77, -50.54
17397, 0.85, -0.46, -0.39, 23.10, -5.88, -26.74
17398, 0.80, -0.47, -0.36, 6.09, 2.66, -17.08
17399, 0.82, -0.41, -0.35, 16.31, -3.78, -26.32
17400, 0.86, -0.40, -0.36, 10.15, -4.27, -5.25
17401, 0.85, -0.40, -0.36, 8.40, -11.06, 3.15
17402, 0.82, -0.44, -0.37, 10.78, -16.31, 11.13
17403, 0.82, -0.46, -0.37, 11.62, -14.49, 14.21
17404, 0.78, -0.46, -0.38, 16.10, -9.38, 14.35
17405, 0.82, -0.47, -0.36, 26.39, -9.87, 14.07
17406, 0.81, -0.46, -0.37, 13.72, -1.68, 11.27
17407, 0.80, -0.47, -0.35, 9.80, 0.14, 7.49
17408, 0.82, -0.47, -0.34, 6.37, 0.21, 4.90
17409, 0.81, -0.47, -0.34, -1.12, -0.42, 8.82
17410, 0.78, -0.48, -0.35, 1.82, -1.89, 8.12
17411, 0.79, -0.49, -0.35, -0.21, -0.42, 6.44
17412, 0.79, -0.48, -0.35, -2.24, -0.28, 4.83
17413, 0.80, -0.49, -0.35, -1.33, -2.45, 5.81
17414, 0.80, -0.49, -0.35, -0.63, -2.52, 3.71
17415, 0.79, -0.48, -0.36, -0.35, -1.68, 4.27
17416, 0.80, -0.48, -0.35, -2.87, -1.54, 0.00
17417, 0.79, -0.49, -0.35, -2.31, -3.64, 5.95
17418, 0.78, -0.49, -0.35, -3.08, 0.98, 0.91
17419, 0.79, -0.49, -0.35, -4.13, 2.24, -1.54
17420, 0.79, -0.49, -0.35, -3.22, 3.71, -4.13
17421, 0.81, -0.47, -0.36, -0.35, 7.98, -2.31
17422, 0.80, -0.49, -0.35, -2.17, 6.44, -4.76
17423, 0.80, -0.48, -0.35, -3.85, 1.96, -7.49
17424, 0.83, -0.50, -0.35, -7.77, 0.91, -8.19
17425, 0.78, -0.48, -0.35, -7.56, -2.31, -17.22
17426, 0.81, -0.48, -0.35, -7.98, -3.08, -32.76
17427, 0.77, -0.52, -0.38, 7.77, -1.40, -45.71
17428, 0.97, -0.31, -0.36, 13.16, 1.89, -39.27
17429, 0.72, -0.58, -0.29, 40.25, -16.17, -8.19
17430, 0.86, -0.42, -0.34, -2.38, -1.40, -10.57
17431, 0.83, -0.43, -0.36, 8.75, -7.49, -0.56
17432, 0.83, -0.43, -0.36, 9.03, -9.73, 6.72
17433, 0.83, -0.41, -0.33, 15.47, -11.41, 9.52
17434, 0.78, -0.47, -0.36, 14.77, -13.02, 19.04
17435, 0.81, -0.44, -0.36, 19.32, -6.37, 7.77
17436, 0.83, -0.45, -0.33, 11.41, -5.11, 9.45
17437, 0.83, -0.44, -0.33, 6.44, -4.27, 2.87
17438, 0.83, -0.44, -0.35, 5.25, -3.71, 11.90
17439, 0.82, -0.44, -0.33, 4.97, -5.11, 12.74
17440, 0.82, -0.46, -0.35, 2.52, -2.03, 7.14
17441, 0.82, -0.46, -0.35, 1.12, -0.28, 14.91
17442, 0.79, -0.47, -0.36, 2.38, 0.28, 11.69
17443, 0.81, -0.47, -0.35, 0.77, 0.49, 1.19
17444, 0.80, -0.49, -0.35, -0.49, -0.28, 2.87
17445, 0.78, -0.49, -0.36, -3.29, -0.70, 2.17
17446, 0.81, -0.48, -0.35, -2.73, -2.31, 7.21
17447, 0.79, -0.48, -0.35, -3.78, 3.22, -0.70
17448, 0.82, -0.48, -0.34, -4.69, 3.08, -1.19
17449, 0.80, -0.47, -0.35, -4.06, 3.08, -1.05
17450, 0.80, -0.47, -0.35, -8.12, 6.09, 0.28
17451, 0.81, -0.48, -0.34, -10.43, 3.22, 0.07
17452, 0.81, -0.48, -0.34, -13.37, -1.19, 0.21
17453, 0.81, -0.49, -0.34, -10.85, -3.99, -8.05
17454, 0.80, -0.46, -0.37, -7.07, -1.82, -23.94
17455, 0.80, -0.46, -0.37, -6.51, 3.57, -41.72
17456, 0.85, -0.42, -0.34, -9.38, 8.54, -49.91
17457, 0.87, -0.40, -0.34, 3.78, 0.00, -21.56
17458, 0.83, -0.40, -0.36, 11.06, -0.07, -16.17
17459, 0.84, -0.45, -0.36, 10.71, -7.98, -4.13
17460, 0.92, -0.33, -0.35, 9.52, -0.21, 2.87
17461, 0.84, -0.42, -0.34, 11.83, -0.70, 7.21
17462, 0.84, -0.42, -0.35, 10.64, -5.18, 17.08
17463, 0.83, -0.44, -0.34, 6.93, -5.67, 12.95
17464, 0.83, -0.43, -0.35, 5.88, -4.13, 9.87
17465, 0.84, -0.43, -0.34, 3.01, -5.11, 13.93
17466, 0.83, -0.44, -0.34, 2.24, -2.45, 9.73
17467, 0.80, -0.46, -0.35, 5.74, -0.07, 14.07
17468, 0.82, -0.46, -0.34, 2.59, 0.14, 4.83
17469, 0.82, -0.45, -0.34, 1.61, 0.07, 2.73
17470, 0.82, -0.45, -0.34, -17.78, -1.61, 2.59
17471, 0.81, -0.47, -0.34, -0.42, -1.54, 4.27
17472, 0.82, -0.45, -0.35, -1.33, 0.98, 2.38
17473, 0.82, -0.45, -0.34, -3.15, -0.28, 4.55
17474, 0.82, -0.48, -0.33, -7.28, 2.80, 11.48
17475, 0.80, -0.46, -0.35, -2.73, 5.46, 0.91
17476, 0.82, -0.45, -0.34, -2.94, 3.36, 0.91
17477, 0.82, -0.46, -0.34, -6.79, 2.94, 0.63
17478, 0.81, -0.45, -0.35, -5.53, -1.05, 6.51
17479, 0.80, -0.49, -0.34, -6.23, -2.03, -4.69
17480, 0.82, -0.46, -0.35, -3.78, -3.22, -19.32
17481, 0.80, -0.47, -0.36, -8.75, -0.21, -35.42
17482, 0.84, -0.44, -0.33, -13.02, 5.60, -50.12
17483, 0.86, -0.39, -0.34, -3.08, -2.66, -17.57
17484, 0.83, -0.41, -0.36, 1.68, -1.61, -10.36
17485, 0.88, -0.39, -0.33, 9.87, -0.56, -8.75
17486, 0.85, -0.41, -0.36, 6.79, -1.40, 7.07
17487, 0.85, -0.42, -0.34, 7.28, -3.85, 13.93
17488, 0.84, -0.42, -0.34, 10.43, -4.62, 12.74
17489, 0.84, -0.42, -0.34, 8.40, -2.10, 12.46
17490, 0.83, -0.43, -0.34, 9.66, -2.87, 16.52
17491, 0.82, -0.45, -0.34, 3.85, -2.87, 7.77
17492, 0.83, -0.43, -0.34, 2.80, -1.54, 8.82
17493, 0.83, -0.43, -0.34, 3.36, 1.19, 7.91
17494, 0.83, -0.44, -0.33, 1.96, 0.35, 4.97
17495, 0.82, -0.44, -0.33, -0.07, -0.49, 4.90
17496, 0.83, -0.45, -0.34, -0.63, 0.91, 2.80
17497, 0.83, -0.45, -0.34, -2.10, -1.05, 5.39
17498, 0.82, -0.47, -0.34, -3.50, 1.26, 3.92
17499, 0.83, -0.44, -0.35, -2.87, 4.41, 6.93
17500, 0.82, -0.45, -0.33, -3.22, 3.71, -5.04
17501, 0.83, -0.45, -0.33, -7.07, -1.61, -5.53
17502, 0.83, -0.43, -0.36, -10.99, -1.61, -9.31
17503, 0.82, -0.44, -0.36, -9.87, -2.38, -18.06
17504, 0.82, -0.43, -0.35, -9.17, -0.56, -26.53
17505, 0.87, -0.41, -0.34, -9.17, 0.70, -27.30
17506, 0.86, -0.38, -0.35, -5.88, -4.41, -7.98
17507, 0.86, -0.38, -0.38, -0.42, -5.18, -2.38
17508, 0.90, -0.41, -0.33, -0.21, -10.08, 7.98
17509, 0.86, -0.40, -0.35, 4.97, -2.38, 0.98
17510, 0.82, -0.40, -0.36, 12.39, 1.89, 12.04
17511, 0.85, -0.41, -0.34, 9.38, -2.24, 10.08
17512, 0.84, -0.41, -0.34, 9.87, -3.01, 15.54
17513, 0.83, -0.43, -0.34, 7.84, -3.50, 8.89
17514, 0.84, -0.43, -0.34, 5.53, -3.22, 8.26
17515, 0.84, -0.43, -0.34, 3.36, -3.85, 9.80
17516, 0.82, -0.44, -0.34, 3.08, -1.47, 7.98
17517, 0.82, -0.44, -0.34, 1.89, 0.98, 2.94
17518, 0.83, -0.44, -0.34, 1.75, -0.07, 4.13
17519, 0.82, -0.45, -0.34, 0.56, 0.63, 4.83
17520, 0.83, -0.44, -0.34, -2.87, -17.43, 3.08
17521, 0.83, -0.44, -0.34, -4.62, 0.77, 2.45
17522, 0.83, -0.44, -0.35, -5.32, 3.36, 5.88
17523, 0.83, -0.45, -0.34, -3.71, 3.43, 3.92
17524, 0.82, -0.45, -0.33, -5.18, 1.75, -1.47
17525, 0.83, -0.44, -0.34, -8.12, -3.43, -3.92
17526, 0.83, -0.43, -0.35, -6.37, -3.99, -9.52
17527, 0.83, -0.44, -0.34, -4.90, -2.73, -13.65
17528, 0.82, -0.42, -0.36, -3.22, 0.28, -17.08
17529, 0.86, -0.42, -0.34, -1.19, -2.73, -6.65
17530, 0.86, -0.41, -0.34, -0.14, -7.00, -5.04
17531, 0.84, -0.41, -0.35, 4.62, -4.69, -2.94
17532, 0.84, -0.42, -0.35, 5.32, -2.31, -1.61
17533, 0.84, -0.41, -0.34, 8.05, -2.31, -0.21
17534, 0.83, -0.44, -0.36, 14.63, -1.33, 0.77
17535, 0.84, -0.38, -0.31, 18.27, -10.92, 6.44
17536, 0.83, -0.42, -0.34, 15.26, -12.25, 10.01
17537, 0.83, -0.43, -0.34, 5.04, -3.29, 5.46
17538, 0.83, -0.44, -0.34, 2.17, -1.40, 3.15
17539, 0.84, -0.44, -0.34, 1.12, -4.48, 7.77
17540, 0.83, -0.43, -0.35, 0.84, -6.37, 13.51
17541, 0.82, -0.44, -0.35, -0.14, -1.89, 8.47
17542, 0.82, -0.44, -0.35, 0.21, -2.17, 9.03
17543, 0.81, -0.45, -0.35, 2.10, -0.35, 8.19
17544, 0.81, -0.45, -0.36, 1.19, 1.05, 4.55
17545, 0.82, -0.45, -0.36, 0.42, -1.26, 4.83
17546, 0.82, -0.46, -0.35, -0.63, 1.33, 4.27
17547, 0.81, -0.46, -0.35, -1.61, 1.96, 4.97
17548, 0.81, -0.46, -0.35, -2.73, 1.54, 2.80
17549, 0.81, -0.45, -0.35, -3.01, 2.10, 2.38
17550, 0.82, -0.45, -0.34, -5.04, 1.26, -0.98
17551, 0.80, -0.47, -0.34, -9.24, -0.91, -12.39
17552, 0.82, -0.45, -0.35, -13.37, -4.34, -15.33
17553, 0.81, -0.45, -0.36, -11.76, -0.70, -27.30
17554, 0.81, -0.41, -0.35, -14.70, 4.13, -38.57
17555, 0.86, -0.36, -0.37, -1.68, 4.41, -19.46
17556, 0.83, -0.41, -0.35, -1.89, -5.32, -1.40
17557, 0.81, -0.41, -0.36, 0.63, -0.77, -6.51
17558, 0.80, -0.41, -0.36, 5.81, -0.35, -0.35
17559, 0.83, -0.39, -0.36, 10.85, 3.08, 1.47
17560, 0.83, -0.40, -0.35, 12.39, -0.63, 5.74
17561, 0.84, -0.41, -0.35, 11.06, -1.33, 9.52
17562, 0.83, -0.42, -0.34, 9.10, -2.10, 9.87
17563, 0.84, -0.42, -0.34, 8.12, -2.73, 11.13
17564, 0.84, -0.43, -0.34, 4.90, -5.25, 11.83
17565, 0.82, -0.45, -0.34, 3.08, -5.60, 12.81
17566, 0.83, -0.44, -0.34, 1.05, -5.46, 13.37
17567, 0.82, -0.44, -0.34, 3.57, -2.73, 16.80
17568, 0.82, -0.45, -0.34, 2.59, 0.07, 9.80
17569, 0.81, -0.46, -0.36, 0.07, -1.89, 9.24
17570, 0.82, -0.46, -0.35, -0.14, -2.94, 7.84
17571, 0.81, -0.45, -0.35, -0.56, -3.71, 11.41
17572, 0.81, -0.46, -0.36, 2.10, -1.26, 11.76
17573, 0.81, -0.47, -0.35, 0.42, 1.40, 3.15
17574, 0.81, -0.46, -0.35, -0.21, 2.10, 5.53
17575, 0.81, -0.47, -0.34, -1.68, 1.68, 5.11
17576, 0.81, -0.48, -0.34, -2.87, 0.70, -1.54
17577, 0.82, -0.46, -0.35, -5.88, -0.07, -2.66
17578, 0.81, -0.46, -0.35, -6.86, -1.54, -12.32
17579, 0.82, -0.46, -0.35, -5.11, -1.89, -13.23
17580, 0.81, -0.46, -0.35, -5.25, -2.24, -15.82
17581, 0.83, -0.43, -0.35, -0.91, 0.70, -8.61
17582, 0.83, -0.44, -0.35, -0.98, -3.78, -0.56
17583, 0.82, -0.45, -0.36, 3.36, -5.88, -4.27
17584, 0.82, -0.43, -0.36, 3.36, -2.94, -2.87
17585, 0.82, -0.44, -0.35, 5.81, -0.84, -0.35
17586, 0.82, -0.44, -0.35, 6.09, -0.49, -0.84
17587, 0.83, -0.43, -0.36, 6.86, -2.59, 2.87
17588, 0.82, -0.45, -0.34, 8.33, -0.91, 2.80
17589, 0.82, -0.46, -0.34, 7.21, -3.29, 4.41
17590, 0.82, -0.45, -0.34, 4.27, -3.43, 4.55
17591, 0.82, -0.45, -0.35, 5.11, -5.18, 13.02
17592, 0.82, -0.45, -0.35, 2.10, -4.83, 15.05
17593, 0.80, -0.47, -0.35, 2.52, -4.13, 15.33
17594, 0.81, -0.47, -0.35, 1.40, -2.31, 10.92
17595, 0.80, -0.48, -0.35, 2.94, 1.05, 7.56
17596, 0.81, -0.48, -0.34, 1.61, -0.42, 3.71
17597, 0.80, -0.48, -0.35, -0.35, -1.54, 2.38
17598, 0.80, -0.48, -0.34, -0.98, -0.14, 1.75
17599, 0.81, -0.48, -0.34, -0.49, 0.84, 3.64
17600, 0.82, -0.48, -0.33, -6.16, 1.19, 10.78
17601, 0.80, -0.48, -0.35, -3.57, 3.57, -4.06
17602, 0.79, -0.49, -0.34, -6.16, 4.06, -7.35
17603, 0.81, -0.48, -0.34, -8.68, 0.42, -10.85
17604, 0.80, -0.48, -0.33, -13.93, 1.82, -20.30
17605, 0.80, -0.47, -0.35, -17.22, -0.35, -31.15
17606, 0.82, -0.43, -0.37, -17.57, 1.75, -35.28
17607, 0.84, -0.41, -0.36, -13.30, 3.22, -28.77
17608, 0.85, -0.40, -0.36, -4.34, -2.10, -7.42
17609, 0.84, -0.40, -0.37, 1.05, 1.12, -5.18
17610, 0.82, -0.42, -0.34, 4.76, 1.68, -4.13
17611, 0.81, -0.41, -0.37, 12.32, -2.38, -1.54
17612, 0.83, -0.42, -0.35, 11.69, -1.68, 6.86
17613, 0.84, -0.42, -0.36, 12.04, -2.31, 9.10
17614, 0.83, -0.43, -0.35, 15.47, -2.87, 9.17
17615, 0.82, -0.42, -0.34, 14.98, -2.52, 10.92
17616, 0.83, -0.44, -0.34, 11.97, -3.29, 14.63
17617, 0.82, -0.45, -0.34, 7.14, -3.01, 11.76
17618, 0.82, -0.45, -0.33, 3.50, -4.20, 9.31
17619, 0.82, -0.46, -0.34, 1.19, -4.97, 8.54
17620, 0.82, -0.45, -0.35, 0.63, -4.41, 8.61
17621, 0.83, -0.46, -0.34, -0.21, -0.49, 12.53
17622, 0.82, -0.46, -0.35, -0.49, -1.89, 7.98
17623, 0.81, -0.47, -0.35, -0.77, -2.87, 5.32
17624, 0.81, -0.47, -0.35, -1.54, -1.40, 2.24
17625, 0.81, -0.46, -0.35, -2.10, -1.12, 1.26
17626, 0.81, -0.47, -0.35, -0.07, 0.56, 3.15
17627, 0.81, -0.46, -0.35, -1.82, 3.22, 0.42
17628, 0.82, -0.46, -0.35, -2.59, 2.66, 4.55
17629, 0.81, -0.47, -0.35, -4.06, 1.47, 3.99
17630, 0.81, -0.47, -0.34, -6.86, 0.00, 0.35
17631, 0.81, -0.46, -0.35, -7.07, -1.89, -1.96
17632, 0.80, -0.47, -0.36, -5.32, -1.61, -11.48
17633, 0.82, -0.45, -0.36, -3.29, -1.33, -11.69
17634, 0.81, -0.45, -0.35, -4.34, -0.84, -16.17
17635, 0.85, -0.43, -0.35, -0.70, -1.68, -10.29
17636, 0.83, -0.43, -0.35, -0.63, -2.73, -1.68
17637, 0.82, -0.43, -0.36, 1.33, -2.45, -5.67
17638, 0.83, -0.44, -0.35, 3.15, -2.03, -2.17
17639, 0.83, -0.44, -0.35, 5.60, -1.96, -0.07
17640, 0.83, -0.43, -0.35, 6.23, -1.82, 3.22
17641, 0.82, -0.45, -0.35, 8.61, -1.33, 2.94
17642, 0.83, -0.44, -0.34, 6.44, -2.24, 4.41
17643, 0.83, -0.44, -0.35, 6.16, -3.36, 8.75
17644, 0.82, -0.45, -0.34, 4.83, -2.73, 10.71
17645, 0.82, -0.45, -0.35, 3.50, -5.67, 16.80
17646, 0.82, -0.46, -0.35, 5.39, -8.61, 23.94
17647, 0.80, -0.47, -0.35, 2.38, -6.44, 16.59
17648, 0.80, -0.48, -0.35, 2.03, 1.05, 2.24
17649, 0.80, -0.48, -0.35, 1.75, 2.66, -1.33
17650, 0.81, -0.47, -0.35, 1.19, 0.84, 1.89
17651, 0.82, -0.46, -0.34, -1.26, 2.38, -4.69
17652, 0.80, -0.47, -0.35, -1.82, 1.40, 1.19
17653, 0.80, -0.47, -0.35, -2.45, 0.91, 2.31
17654, 0.80, -0.47, -0.35, -4.62, 2.66, -0.35
17655, 0.80, -0.48, -0.34, -4.06, 3.36, -2.87
17656, 0.81, -0.48, -0.34, -6.58, 0.63, -4.83
17657, 0.82, -0.47, -0.34, -12.32, -1.26, -10.15
17658, 0.81, -0.47, -0.35, -9.03, -1.82, -13.86
17659, 0.81, -0.45, -0.36, -9.38, 3.15, -28.63
17660, 0.82, -0.44, -0.35, -11.97, 4.13, -39.20
17661, 0.84, -0.41, -0.34, -3.22, -0.63, -11.34
17662, 0.83, -0.42, -0.37, -1.33, -1.82, -7.28
17663, 0.84, -0.41, -0.35, 0.56, -3.57, -1.68
17664, 0.85, -0.41, -0.37, 5.53, -5.39, 1.40
17665, 0.85, -0.42, -0.36, 7.91, -6.65, 5.53
17666, 0.81, -0.42, -0.35, 12.11, -3.50, 5.88
17667, 0.82, -0.43, -0.34, 17.71, -4.41, 7.42
17668, 0.83, -0.44, -0.35, 12.04, -3.71, 9.80
17669, 0.82, -0.44, -0.35, 9.31, -0.70, 6.86
17670, 0.83, -0.45, -0.34, 6.16, -3.43, 8.54
17671, 0.82, -0.45, -0.35, 3.78, -4.13, 10.01
17672, 0.81, -0.46, -0.34, 1.75, -4.34, 10.01
17673, 0.82, -0.46, -0.35, 0.07, -3.64, 5.11
17674, 0.82, -0.46, -0.35, 0.28, -2.52, 4.69
17675, 0.81, -0.46, -0.35, 1.75, -1.12, 5.39
17676, 0.80, -0.47, -0.35, 1.40, -0.56, 4.48
17677, 0.81, -0.46, -0.35, -0.49, -0.84, 3.43
17678, 0.80, -0.47, -0.36, -2.52, -0.35, 0.42
17679, 0.81, -0.46, -0.35, -1.82, 0.84, 2.24
17680, 0.81, -0.46, -0.35, -1.89, 1.05, 0.28
17681, 0.81, -0.46, -0.35, -1.96, 2.52, -0.35
17682, 0.81, -0.47, -0.35, -4.20, 2.87, -2.38
17683, 0.81, -0.46, -0.35, -4.20, 1.47, -1.47
17684, 0.81, -0.46, -0.34, -6.65, -17.92, -7.42
17685, 0.81, -0.46, -0.35, -7.98, -1.61, -9.52
17686, 0.82, -0.46, -0.36, -5.95, -0.63, -15.89
17687, 0.82, -0.45, -0.36, -6.51, 1.33, -20.58
17688, 0.85, -0.42, -0.35, -7.21, -1.96, -15.89
17689, 0.88, -0.42, -0.33, -1.26, -1.54, -8.33
17690, 0.84, -0.41, -0.35, -0.56, -5.46, 1.54
17691, 0.84, -0.42, -0.34, 2.31, -3.99, 1.26
17692, 0.82, -0.41, -0.36, 6.23, -2.10, 4.41
17693, 0.84, -0.42, -0.37, 10.92, -1.68, 6.44
17694, 0.82, -0.46, -0.32, 19.60, -10.15, 6.16
17695, 0.83, -0.43, -0.35, 7.70, -2.10, 7.77
17696, 0.82, -0.45, -0.34, 6.37, -1.19, 5.04
17697, 0.82, -0.45, -0.35, 3.57, -1.26, 4.27
17698, 0.83, -0.45, -0.35, 1.89, -3.08, 5.04
17699, 0.82, -0.45, -0.35, 0.28, -3.92, 4.62
17700, 0.82, -0.45, -0.35, -0.14, -3.85, 6.51
17701, 0.81, -0.45, -0.35, -0.42, -4.20, 8.47
17702, 0.80, -0.46, -0.37, -1.26, -3.29, 6.72
17703, 0.81, -0.46, -0.36, 0.21, -0.91, 5.11
17704, 0.80, -0.47, -0.36, 1.12, -0.14, 5.39
17705, 0.81, -0.47, -0.35, 1.82, -2.38, 5.39
17706, 0.80, -0.47, -0.36, 0.42, -1.40, 0.28
17707, 0.81, -0.49, -0.37, 0.91, 0.07, -14.98
17708, 0.79, -0.47, -0.36, 0.21, -1.05, 4.13
17709, 0.80, -0.47, -0.36, 0.56, 0.98, 1.05
17710, 0.80, -0.47, -0.35, 0.70, 0.98, -2.24
17711, 0.81, -0.47, -0.35, -2.80, 3.50, -6.72
17712, 0.81, -0.46, -0.35, -4.83, 2.38, -4.69
17713, 0.81, -0.46, -0.36, -7.70, 0.84, -8.47
17714, 0.81, -0.45, -0.35, -8.61, 2.87, -15.68
17715, 0.82, -0.46, -0.34, -13.58, 2.45, -27.58
17716, 0.84, -0.44, -0.33, -21.28, 1.33, -24.92
17717, 0.82, -0.39, -0.39, -13.16, 3.71, -31.57
17718, 0.86, -0.40, -0.35, -8.89, -1.82, -18.41
17719, 0.83, -0.40, -0.37, -9.59, -8.26, -13.65
17720, 0.80, -0.36, -0.39, -6.51, -5.25, -8.33
17721, 0.85, -0.39, -0.36, -6.65, -7.14, -8.47
17722, 0.78, -0.35, -0.39, 3.57, 7.28, -4.83
17723, 0.85, -0.40, -0.37, 33.04, 2.80, -14.77
17724, 0.85, -0.45, -0.37, 22.61, -10.29, 1.05
17725, 1.05, -0.35, -0.36, 7.42, -14.35, 16.45
17726, 0.83, -0.41, -0.35, 8.40, -2.10, 3.50
17727, 0.78, -0.42, -0.37, 5.18, -1.47, 9.31
17728, 0.85, -0.42, -0.34, 0.49, -6.79, 15.54
17729, 0.83, -0.41, -0.36, 2.52, -4.34, 14.98
17730, 0.83, -0.41, -0.35, -5.60, -2.45, 5.39
17731, 0.82, -0.44, -0.36, -2.73, -3.08, 4.76
17732, 0.82, -0.41, -0.36, -0.70, -0.70, 2.31
17733, 0.82, -0.41, -0.36, -0.91, 1.68, 3.22
17734, 0.83, -0.43, -0.37, 1.26, 1.89, 4.90
17735, 0.83, -0.42, -0.36, 2.73, 2.94, 1.96
17736, 0.84, -0.42, -0.35, 1.68, 3.22, 2.80
17737, 0.84, -0.42, -0.35, 1.19, 2.10, 5.53
17738, 0.83, -0.42, -0.35, 0.91, 2.94, 6.51
17739, 0.83, -0.42, -0.35, -0.28, 3.57, 2.31
17740, 0.86, -0.36, -0.29, -0.28, 15.82, -5.53
17741, 0.85, -0.40, -0.31, -2.24, 11.34, -4.27
17742, 0.84, -0.44, -0.35, -3.64, 4.13, 5.25
17743, 0.84, -0.42, -0.36, -1.19, 5.53, 3.36
17744, 0.87, -0.45, -0.34, -9.87, 3.01, 14.42
17745, 0.83, -0.43, -0.34, -6.79, 2.45, 4.06
17746, 0.82, -0.44, -0.36, -4.76, -1.96, 0.35
17747, 0.78, -0.42, -0.37, -10.85, -12.60, -15.19
17748, 0.80, -0.44, -0.36, -13.79, 2.45, -34.02
17749, 0.86, -0.39, -0.34, -15.82, -0.49, -30.31
17750, 0.88, -0.39, -0.33, -8.54, -4.97, -10.78
17751, 0.85, -0.40, -0.35, -1.26, -3.99, 0.28
17752, 0.83, -0.38, -0.36, 0.42, -1.61, 0.28
17753, 0.85, -0.39, -0.35, 8.40, -0.77, 6.72
17754, 0.86, -0.39, -0.34, 11.76, -0.63, 8.75
17755, 0.85, -0.40, -0.34, 9.24, -3.36, 9.59
17756, 0.85, -0.41, -0.33, 6.37, -3.43, 11.27
17757, 0.85, -0.40, -0.34, 3.64, -3.43, 14.07
17758, 0.84, -0.42, -0.34, 1.68, -3.22, 9.10
17759, 0.84, -0.41, -0.34, 1.61, -2.73, 9.17
17760, 0.83, -0.43, -0.34, 3.64, -0.07, 8.05
17761, 0.83, -0.43, -0.34, 2.38, 0.56, 1.89
17762, 0.84, -0.42, -0.34, 1.47, -0.21, 3.15
17763, 0.85, -0.44, -0.33, -0.84, -0.42, -0.35
17764, 0.83, -0.43, -0.34, 1.96, 2.03, 3.99
17765, 0.84, -0.42, -0.34, 1.12, 2.24, 1.96
17766, 0.84, -0.42, -0.34, -0.42, 1.05, 1.26
17767, 0.84, -0.42, -0.34, -1.19, 1.05, 0.14
17768, 0.84, -0.42, -0.33, -1.89, 0.35, 0.56
17769, 0.85, -0.42, -0.33, -5.60, -1.40, 0.00
17770, 0.84, -0.42, -0.33, -2.94, -2.10, 0.70
17771, 0.84, -0.42, -0.33, -3.71, -2.87, 2.73
17772, 0.83, -0.44, -0.34, -1.82, -2.38, -1.75
17773, 0.82, -0.43, -0.36, -1.75, 4.20, -4.13
17774, 0.83, -0.43, -0.34, -2.38, 2.59, -22.61
17775, 0.86, -0.40, -0.35, -6.72, 2.24, -28.21
17776, 0.88, -0.39, -0.32, -4.76, -5.74, -5.60
17777, 0.83, -0.40, -0.35, -7.63, -4.62, -10.36
17778, 0.89, -0.37, -0.34, 2.87, 0.00, -0.84
17779, 0.85, -0.38, -0.36, 7.70, -1.26, 11.27
17780, 0.82, -0.39, -0.35, 5.95, -3.29, 5.95
17781, 0.85, -0.38, -0.33, 10.43, -1.19, 11.97
17782, 0.84, -0.41, -0.34, 9.94, -2.31, 12.74
17783, 0.85, -0.42, -0.33, 6.51, -3.57, 12.74
17784, 0.84, -0.42, -0.33, 5.18, -1.61, 9.87
17785, 0.84, -0.42, -0.33, 3.92, -2.31, 8.61
17786, 0.84, -0.43, -0.33, 3.29, -1.26, 9.03
17787, 0.84, -0.43, -0.33, 2.38, 0.49, 5.95
17788, 0.84, -0.43, -0.33, 1.40, 0.21, 3.92
17789, 0.83, -0.43, -0.34, 0.63, 0.35, 3.01
17790, 0.84, -0.43, -0.34, 0.98, 1.19, 3.43
17791, 0.83, -0.43, -0.33, 1.54, 2.45, 3.71
17792, 0.83, -0.43, -0.33, -2.24, 2.45, -3.78
17793, 0.85, -0.42, -0.32, -7.14, 0.84, -3.71
17794, 0.83, -0.43, -0.34, -6.51, 2.66, -0.07
17795, 0.87, -0.40, -0.46, -1.47, 4.55, 7.28
17796, 0.84, -0.42, -0.34, -3.08, 1.82, 9.10
17797, 0.83, -0.43, -0.33, 1.40, 1.54, 11.90
17798, 0.84, -0.44, -0.32, 2.66, 0.70, 13.65
17799, 0.84, -0.44, -0.32, 3.78, -3.15, 14.63
17800, 0.82, -0.45, -0.33, 2.94, -6.44, 10.85
17801, 0.82, -0.45, -0.33, 1.33, -4.55, 3.36
17802, 0.83, -0.45, -0.33, -1.89, -1.89, -10.64
17803, 0.82, -0.46, -0.33, -2.52, -0.70, -18.55
17804, 0.85, -0.43, -0.33, -2.87, -0.91, -15.54
17805, 0.84, -0.43, -0.33, -1.61, -2.80, -14.56
17806, 0.84, -0.42, -0.33, -1.05, -2.03, -11.48
17807, 0.84, -0.42, -0.33, 0.56, -1.40, -6.16
17808, 0.85, -0.41, -0.32, 0.98, -1.12, 1.40
17809, 0.84, -0.41, -0.33, 4.34, -0.63, 3.36
17810, 0.84, -0.42, -0.33, 5.32, -0.56, 6.37
17811, 0.85, -0.42, -0.33, 5.67, -4.55, 7.07
17812, 0.83, -0.44, -0.33, 6.44, -4.48, 9.73
17813, 0.84, -0.43, -0.33, 6.86, -3.22, 11.27
17814, 0.83, -0.44, -0.33, 7.49, -3.22, 13.02
17815, 0.84, -0.43, -0.33, 10.15, -5.81, 16.52
17816, 0.82, -0.46, -0.33, 6.02, -7.28, 21.14
17817, 0.82, -0.46, -0.33, 5.18, -5.88, 23.87
17818, 0.80, -0.48, -0.33, 3.22, -3.15, 15.33
17819, 0.81, -0.48, -0.33, 2.73, -2.31, 10.43
17820, 0.80, -0.49, -0.33, 1.19, -1.12, 5.88
17821, 0.80, -0.48, -0.33, 0.84, 0.63, 1.05
17822, 0.81, -0.48, -0.33, -0.21, 1.19, -2.10
17823, 0.81, -0.48, -0.33, -0.70, 2.24, -4.41
17824, 0.81, -0.48, -0.33, -1.26, 2.38, -5.46
17825, 0.81, -0.48, -0.32, -4.41, 2.59, -13.16
17826, 0.81, -0.49, -0.32, -5.67, 2.73, -18.20
17827, 0.82, -0.47, -0.32, -11.69, 2.24, -27.93
17828, 0.85, -0.47, -0.30, -20.44, 1.82, -31.29
17829, 0.84, -0.43, -0.34, -16.45, 2.52, -36.12
17830, 0.84, -0.42, -0.34, -13.65, 3.08, -37.10
17831, 0.86, -0.40, -0.34, -4.69, -3.22, -12.74
17832, 0.88, -0.36, -0.34, 6.37, 3.36, -2.59
17833, 0.82, -0.39, -0.33, 3.22, 3.22, -1.19
17834, 0.82, -0.40, -0.33, 2.94, 0.21, 0.35
17835, 0.88, -0.42, -0.31, 7.07, -5.04, 6.51
17836, 0.86, -0.40, -0.32, 7.98, -4.06, 10.64
17837, 0.85, -0.40, -0.33, 7.77, -6.65, 12.11
17838, 0.85, -0.41, -0.32, 8.75, -5.25, 16.66
17839, 0.85, -0.42, -0.33, 9.24, -7.14, 23.38
17840, 0.82, -0.45, -0.33, 6.16, -3.92, 15.26
17841, 0.81, -0.45, -0.34, 2.94, -2.73, 10.57
17842, 0.84, -0.44, -0.33, 1.82, -0.07, 4.76
17843, 0.83, -0.45, -0.33, 2.87, -0.21, 7.35
17844, 0.83, -0.45, -0.33, 1.33, -1.33, 5.18
17845, 0.83, -0.45, -0.33, 0.63, -2.17, 2.45
17846, 0.82, -0.45, -0.33, 0.07, -0.77, 2.17
17847, 0.83, -0.45, -0.33, -1.61, -0.42, 0.07
17848, 0.82, -0.45, -0.33, -0.35, 0.91, -0.56
17849, 0.83, -0.45, -0.33, -2.24, 2.10, -4.55
17850, 0.83, -0.45, -0.33, -2.45, 1.19, -3.01
17851, 0.81, -0.45, -0.33, -4.69, 0.84, -7.00
17852, 0.83, -0.44, -0.33, -5.53, -0.91, -6.65
17853, 0.83, -0.44, -0.33, -3.22, -0.56, -9.38
17854, 0.84, -0.43, -0.33, -3.36, -1.12, -9.52
17855, 0.83, -0.43, -0.34, -3.36, -1.75, -8.82
17856, 0.88, -0.41, -0.32, -2.10, -2.80, -2.38
17857, 0.82, -0.43, -0.34, -1.40, -4.69, 0.14
17858, 0.87, -0.42, -0.32, 0.63, -3.36, 1.68
17859, 0.83, -0.42, -0.35, 3.71, -4.48, -4.13
17860, 0.84, -0.42, -0.33, 5.95, -3.22, 2.87
17861, 0.84, -0.43, -0.33, 5.74, -2.80, 5.25
17862, 0.83, -0.43, -0.33, 4.48, -1.19, 2.38
17863, 0.84, -0.43, -0.33, 4.34, -2.66, 4.34
17864, 0.84, -0.43, -0.33, 3.15, -3.15, 3.29
17865, 0.84, -0.43, -0.33, 3.08, -2.66, 4.20
17866, 0.84, -0.43, -0.33, 2.24, -2.87, 5.46
17867, 0.84, -0.43, -0.33, 1.96, -3.57, 7.77
17868, 0.83, -0.44, -0.33, -0.07, -3.43, 5.39
17869, 0.82, -0.44, -0.33, 1.05, -1.47, 6.65
17870, 0.83, -0.44, -0.33, 2.38, 0.14, 7.84
17871, 0.82, -0.45, -0.33, 1.47, -0.28, 5.88
17872, 0.84, -0.44, -0.33, 1.19, 0.98, 4.41
17873, 0.83, -0.45, -0.33, 0.28, 0.84, 3.92
17874, 0.83, -0.45, -0.33, 0.63, 1.19, 4.55
17875, 0.80, -0.44, -0.32, -2.59, 2.87, 2.17
17876, 0.82, -0.46, -0.33, -1.96, 2.24, 0.07
17877, 0.83, -0.45, -0.33, -3.15, 1.54, 3.71
17878, 0.82, -0.46, -0.32, -3.15, 1.61, 1.26
17879, 0.83, -0.46, -0.32, -3.99, -0.63, 1.12
17880, 0.82, -0.46, -0.33, -3.85, -2.45, -1.19
17881, 0.82, -0.46, -0.33, -2.73, -0.77, -10.92
17882, 0.83, -0.45, -0.33, -3.43, 0.14, -16.66
17883, 0.84, -0.43, -0.34, -2.52, -1.75, -15.40
17884, 0.85, -0.43, -0.32, -2.03, -1.61, -8.26
17885, 0.84, -0.43, -0.34, -1.47, -3.78, -9.31
17886, 0.84, -0.43, -0.33, -1.05, -5.53, -4.20
17887, 0.84, -0.42, -0.34, 2.10, -5.04, -2.73
17888, 0.84, -0.42, -0.34, 4.34, -3.57, 1.68
17889, 0.84, -0.43, -0.33, 4.55, -4.20, 2.03
17890, 0.84, -0.43, -0.34, 3.22, -6.16, 2.17
17891, 0.84, -0.43, -0.34, 2.17, -4.83, 2.66
17892, 0.84, -0.43, -0.34, 3.43, -3.36, 4.13
17893, 0.84, -0.43, -0.33, 3.78, -5.46, 8.75
17894, 0.83, -0.43, -0.34, 3.64, -5.81, 13.86
17895, 0.82, -0.44, -0.34, 4.48, -5.88, 17.50
17896, 0.81, -0.46, -0.34, 3.36, -4.20, 12.88
17897, 0.82, -0.45, -0.34, 2.66, -0.70, 7.56
17898, 0.81, -0.46, -0.34, 4.83, 1.75, 7.28
17899, 0.82, -0.47, -0.34, 1.40, 1.75, -0.42
17900, 0.82, -0.46, -0.34, 0.14, 2.45, -1.19
17901, 0.82, -0.46, -0.33, -0.42, 3.71, -3.43
17902, 0.82, -0.46, -0.33, 0.21, 3.85, -1.19
17903, 0.82, -0.47, -0.33, 0.00, 3.57, -2.87
17904, 0.82, -0.46, -0.33, -2.17, 4.76, -5.60
17905, 0.81, -0.46, -0.33, -3.15, 4.76, -8.82
17906, 0.83, -0.45, -0.32, -7.84, 3.15, -7.84
17907, 0.83, -0.44, -0.33, -10.15, 0.35, -7.56
17908, 0.83, -0.44, -0.33, -11.62, -1.68, -17.36
17909, 0.83, -0.44, -0.34, -11.48, -0.56, -26.32
17910, 0.84, -0.43, -0.34, -11.06, 2.17, -31.71
17911, 0.86, -0.39, -0.33, -4.20, 1.12, -15.33
17912, 0.88, -0.39, -0.34, -3.43, -5.53, -5.39
17913, 0.84, -0.39, -0.36, -1.96, -4.90, -1.54
17914, 0.85, -0.40, -0.35, 1.54, -3.08, -0.35
17915, 0.85, -0.40, -0.34, 6.86, -5.53, 2.24
17916, 0.84, -0.42, -0.34, 9.03, -5.18, 4.13
17917, 0.85, -0.41, -0.34, 8.61, -6.16, 7.07
17918, 0.85, -0.40, -0.34, 7.70, -6.86, 8.54
17919, 0.84, -0.41, -0.34, 6.72, -5.74, 6.79
17920, 0.84, -0.41, -0.34, 7.14, -4.76, 10.15
17921, 0.84, -0.42, -0.34, 6.79, -3.36, 13.58
17922, 0.83, -0.43, -0.34, 3.29, -1.82, 10.85
17923, 0.83, -0.43, -0.34, 0.28, -3.57, 7.98
17924, 0.83, -0.43, -0.34, 0.77, -1.19, 5.32
17925, 0.83, -0.43, -0.34, 1.47, -0.42, 4.76
17926, 0.83, -0.44, -0.34, 0.70, -0.07, 3.15
17927, 0.82, -0.44, -0.34, -1.54, 1.05, -2.17
17928, 0.83, -0.43, -0.34, -1.05, 0.00, 0.35
17929, 0.82, -0.44, -0.35, -0.49, 1.12, 0.56
17930, 0.84, -0.44, -0.33, -0.28, 2.73, -2.52
17931, 0.84, -0.43, -0.34, -0.84, 2.52, -1.54
17932, 0.84, -0.44, -0.34, -1.82, 1.96, -1.75
17933, 0.84, -0.43, -0.33, -2.45, 0.91, -2.66
17934, 0.84, -0.43, -0.33, -5.53, -2.17, -1.61
17935, 0.83, -0.44, -0.34, -6.51, -3.15, -7.00
17936, 0.83, -0.42, -0.34, -7.77, -1.61, -13.58
17937, 0.84, -0.42, -0.35, -6.93, 0.42, -15.82
17938, 0.86, -0.39, -0.34, -7.42, -1.33, -12.11
17939, 0.85, -0.40, -0.35, -2.59, -3.36, -2.38
17940, 0.84, -0.40, -0.34, -3.01, -6.02, -0.21
